PacketCounter,SampleTimeFine,Quat_W,Quat_X,Quat_Y,Quat_Z,Acc_X,Acc_Y,Acc_Z,Gyr_X,Gyr_Y,Gyr_Z,Mag_X,Mag_Y,Mag_Z,
0, 42099055, 0.8963572382926941, -0.0018124255584552884, -0.2694465219974518, 0.3520495891571045, 0, 0, 0, 0, 0, 0, 0.0078125, 0.6025390625, -0.828369140625, 
1, 42107388, 0.8963414430618286, -0.0018059550784528255, -0.26941031217575073, 0.35211753845214844, 4.955146312713623, -2.0567355155944824, 8.687749862670898, 0.5065599083900452, 0.3540271818637848, 0.8917211294174194, 0.0078125, 0.60546875, -0.827392578125, 
2, 42115721, 0.8963378667831421, -0.0017610099166631699, -0.26934579014778137, 0.35217612981796265, 4.952607154846191, -2.027444839477539, 8.678980827331543, 1.0836997032165527, 0.5636028051376343, 0.5753340721130371, 0.0048828125, 0.603759765625, -0.827880859375, 
3, 42124054, 0.896507978439331, -0.0023236428387463093, -0.2696389853954315, 0.35151514410972595, 4.959073543548584, -1.993525505065918, 8.701675415039062, 1.314868450164795, 0.7160331010818481, 0.7261251211166382, 0.004638671875, 0.6025390625, -0.825439453125, 
4, 42132387, 0.8965127468109131, -0.002254921244457364, -0.26947253942489624, 0.35163113474845886, 4.967318534851074, -1.952727198600769, 8.758674621582031, 2.0824246406555176, 1.7338662147521973, 1.1570334434509277, 0.007080078125, 0.60302734375, -0.819091796875, 
5, 42140720, 0.8965836763381958, -0.002658535959199071, -0.2697867751121521, 0.3512064814567566, 4.917526721954346, -1.969940185546875, 8.86260986328125, 1.2036768198013306, 1.5966761112213135, 1.2798279523849487, 0.005615234375, 0.6015625, -0.822509765625, 
6, 42149053, 0.896560788154602, -0.0027337290812283754, -0.26979631185531616, 0.35125696659088135, 4.920004367828369, -2.0063366889953613, 8.784649848937988, -0.7872022986412048, 0.15838561952114105, 1.0126714706420898, 0.006591796875, 0.6025390625, -0.818115234375, 
7, 42157386, 0.8966728448867798, -0.0028722230345010757, -0.2698299288749695, 0.3509434163570404, 4.97444486618042, -2.0521795749664307, 8.69855785369873, 0.15730983018875122, 0.4281291365623474, 0.809601902961731, 0.006103515625, 0.59912109375, -0.818603515625, 
8, 42165719, 0.8966726064682007, -0.0028163923416286707, -0.269680917263031, 0.35105887055397034, 4.981902122497559, -2.052002429962158, 8.716057777404785, 1.8365789651870728, 1.563172698020935, 1.222861886024475, 0.007080078125, 0.60205078125, -0.817626953125, 
9, 42174052, 0.8967305421829224, -0.0029631052166223526, -0.2696698009967804, 0.3509185016155243, 4.944505214691162, -2.030435800552368, 8.778191566467285, 1.3298524618148804, 1.3636378049850464, 1.2948378324508667, 0.006591796875, 0.6015625, -0.814697265625, 
10, 42182385, 0.896714985370636, -0.002992744790390134, -0.26961302757263184, 0.35100165009498596, 4.989272594451904, -2.031986713409424, 8.786215782165527, 0.21627378463745117, 0.7826301455497742, 1.2125905752182007, 0.004638671875, 0.6015625, -0.816162109375, 
11, 42190718, 0.8968071341514587, -0.003366644261404872, -0.2697978615760803, 0.35062074661254883, 4.989713668823242, -2.06558895111084, 8.649260520935059, -1.1277434825897217, -0.21877120435237885, 1.8304574489593506, 0.006591796875, 0.60400390625, -0.815673828125, 
12, 42199051, 0.8967496156692505, -0.00347108650021255, -0.2698323130607605, 0.35074037313461304, 4.93618631362915, -2.1119322776794434, 8.628705024719238, -1.0131198167800903, -0.13998179137706757, 2.1386733055114746, 0.009033203125, 0.60205078125, -0.813232421875, 
13, 42207384, 0.8968345522880554, -0.003791778115555644, -0.2699891924858093, 0.35039907693862915, 4.892624378204346, -2.154322624206543, 8.649028778076172, 0.044018059968948364, 0.8535303473472595, 1.9158294200897217, 0.008544921875, 0.59912109375, -0.815185546875, 
14, 42215717, 0.8968315720558167, -0.003801910439506173, -0.2698892652988434, 0.35048359632492065, 4.873594760894775, -2.176501989364624, 8.77656078338623, 0.6697738170623779, 1.2652279138565063, 1.0996575355529785, 0.005126953125, 0.603515625, -0.815673828125, 
15, 42224050, 0.8967470526695251, -0.004088384099304676, -0.2701355814933777, 0.3505064845085144, 4.888038158416748, -2.152719497680664, 8.785865783691406, 0.8165689706802368, 0.4794600307941437, 0.5937507748603821, 0.006103515625, 0.60107421875, -0.814208984375, 
16, 42232383, 0.896754264831543, -0.0040124282240867615, -0.2700434625148773, 0.3505600094795227, 4.877231597900391, -2.112077474594116, 8.785465240478516, 1.5811793804168701, 0.7928245663642883, 0.3482895493507385, 0.006103515625, 0.60205078125, -0.814697265625, 
17, 42240716, 0.8968155980110168, -0.004262280650436878, -0.2700449824333191, 0.35039886832237244, 4.914740562438965, -2.0719408988952637, 8.857795715332031, 1.9476935863494873, 1.1164348125457764, -0.0975390076637268, 0.007080078125, 0.60107421875, -0.813232421875, 
18, 42249049, 0.8968174457550049, -0.004181443247944117, -0.2700102627277374, 0.35042181611061096, 4.960038661956787, -2.045377016067505, 8.827316284179688, 1.2492189407348633, 0.04386437311768532, -0.025025105103850365, 0.010009765625, 0.603515625, -0.816650390625, 
19, 42257382, 0.8968605399131775, -0.004430805798619986, -0.27003565430641174, 0.35028934478759766, 4.936291217803955, -2.0254204273223877, 8.803826332092285, 0.9130065441131592, 0.060974687337875366, 0.14511744678020477, 0.006591796875, 0.6015625, -0.814697265625, 
20, 42265715, 0.8968830704689026, -0.004393060225993395, -0.26993393898010254, 0.3503107726573944, 4.919854164123535, -2.0226595401763916, 8.723535537719727, 1.0361852645874023, 1.1557013988494873, 0.022630175575613976, 0.005126953125, 0.6044921875, -0.814697265625, 
21, 42274048, 0.8969606161117554, -0.0046010916121304035, -0.2698439955711365, 0.35017842054367065, 4.940434455871582, -2.0091710090637207, 8.766217231750488, 0.8582945466041565, 1.4868165254592896, -0.23531797528266907, 0.005615234375, 0.60693359375, -0.814208984375, 
22, 42282381, 0.8969666957855225, -0.004607971291989088, -0.26980119943618774, 0.35019582509994507, 4.980674743652344, -2.011136293411255, 8.731611251831055, 0.185856893658638, 0.5819041728973389, 0.2142118364572525, 0.007080078125, 0.60205078125, -0.812255859375, 
23, 42290714, 0.8971019387245178, -0.004892807453870773, -0.26978740096092224, 0.3498556613922119, 4.926756858825684, -2.065977096557617, 8.671670913696289, 0.23164232075214386, 0.5425479412078857, 0.2552586495876312, 0.009033203125, 0.607421875, -0.817138671875, 
24, 42299047, 0.8971158266067505, -0.004868402611464262, -0.2696974277496338, 0.34988975524902344, 4.91681432723999, -2.082357168197632, 8.657485961914062, 0.8619318008422852, 1.0415387153625488, 0.2701917588710785, 0.008544921875, 0.6044921875, -0.813720703125, 
25, 42307380, 0.8971909880638123, -0.004977418575435877, -0.2695732116699219, 0.3497913181781769, 4.969498157501221, -2.0239076614379883, 8.699527740478516, 1.9485900402069092, 1.9069157838821411, 0.2409915179014206, 0.003662109375, 0.607421875, -0.818115234375, 
26, 42315713, 0.8972176909446716, -0.004892493598163128, -0.26938948035240173, 0.34986555576324463, 4.933170318603516, -2.000443458557129, 8.775110244750977, 2.2089333534240723, 1.9527909755706787, 0.48719552159309387, 0.005615234375, 0.60791015625, -0.813720703125, 
27, 42324046, 0.8973120450973511, -0.005041570868343115, -0.26933592557907104, 0.3496629595756531, 4.916369438171387, -2.000417709350586, 8.754768371582031, 1.4421838521957397, 1.3132929801940918, 0.577191174030304, 0.004150390625, 0.60693359375, -0.813720703125, 
28, 42332379, 0.8973374366760254, -0.0049757203087210655, -0.26920053362846375, 0.3497030735015869, 4.888910293579102, -2.0371909141540527, 8.75065803527832, 1.6152976751327515, 1.444962978363037, 0.13953353464603424, 0.005615234375, 0.6083984375, -0.814208984375, 
29, 42340712, 0.8974771499633789, -0.0050554173067212105, -0.26912209391593933, 0.349403440952301, 4.9440999031066895, -2.0223636627197266, 8.724853515625, 1.6598410606384277, 1.1982723474502563, -0.24187523126602173, 0.004150390625, 0.60546875, -0.815673828125, 
30, 42349045, 0.8974915146827698, -0.004977926146239042, -0.26902514696121216, 0.3494423031806946, 4.950087070465088, -2.005436897277832, 8.698760032653809, 1.5667588710784912, 0.8745852708816528, 0.13077348470687866, 0.003662109375, 0.607421875, -0.817626953125, 
31, 42357378, 0.8976044058799744, -0.004994750022888184, -0.26885780692100525, 0.34928098320961, 4.947001934051514, -1.9837309122085571, 8.676058769226074, 2.782743215560913, 2.0979726314544678, 0.5469536781311035, 0.001708984375, 0.609375, -0.815673828125, 
32, 42365711, 0.8976410031318665, -0.004889168776571751, -0.2686035931110382, 0.34938403964042664, 4.95766019821167, -1.9835269451141357, 8.805182456970215, 2.9081246852874756, 2.758793830871582, 0.7259970307350159, 0.005126953125, 0.6103515625, -0.816650390625, 
33, 42374044, 0.8977841734886169, -0.004990022629499435, -0.26848793029785156, 0.34910303354263306, 4.9906697273254395, -1.964420199394226, 8.835323333740234, 1.9952850341796875, 1.8044846057891846, 1.2705557346343994, 0.006103515625, 0.6083984375, -0.817626953125, 
34, 42382377, 0.8977710604667664, -0.004969197325408459, -0.26833125948905945, 0.3492574691772461, 4.931441307067871, -1.9726499319076538, 8.78554916381836, 1.5805647373199463, 1.7742083072662354, 1.9039957523345947, 0.005126953125, 0.60791015625, -0.817138671875, 
35, 42390710, 0.8978666067123413, -0.005111385602504015, -0.2681392729282379, 0.34915754199028015, 4.916615962982178, -1.9962331056594849, 8.800517082214355, 0.9857509732246399, 3.0433170795440674, 2.1595489978790283, 0.007080078125, 0.61181640625, -0.820556640625, 
36, 42399043, 0.8979254961013794, -0.00533843832090497, -0.2677587866783142, 0.3492945730686188, 4.897702693939209, -1.99351167678833, 8.834583282470703, -0.46543630957603455, 5.996024131774902, 2.274787425994873, 0.006591796875, 0.60986328125, -0.820068359375, 
37, 42407376, 0.8981028199195862, -0.005737038794904947, -0.2673986554145813, 0.3491082191467285, 4.934103012084961, -1.9632195234298706, 8.925070762634277, -1.7815980911254883, 6.669651508331299, 1.704614520072937, 0.006103515625, 0.6123046875, -0.821044921875, 
38, 42415709, 0.8981119990348816, -0.006026123184710741, -0.26729458570480347, 0.34915950894355774, 4.9931640625, -1.9850455522537231, 8.739701271057129, -2.879859685897827, 2.7018024921417236, 1.6637598276138306, 0.007568359375, 0.61279296875, -0.821044921875, 
39, 42424042, 0.8981634378433228, -0.006189475767314434, -0.2673224210739136, 0.34900298714637756, 4.939023971557617, -2.0778958797454834, 8.494856834411621, -0.6769585609436035, 0.04135417938232422, 2.075867176055908, 0.004638671875, 0.6123046875, -0.822509765625, 
40, 42432375, 0.898171067237854, -0.005983056500554085, -0.26695823669433594, 0.34926560521125793, 4.941046237945557, -2.1551406383514404, 8.530220031738281, 5.265377044677734, 3.514439344406128, 2.482621192932129, 0.008056640625, 0.6162109375, -0.819091796875, 
41, 42440708, 0.8983256816864014, -0.005685207899659872, -0.26640623807907104, 0.34929418563842773, 4.864722728729248, -2.0948879718780518, 8.7748384475708, 8.400125503540039, 6.064132213592529, 1.8656514883041382, 0.0078125, 0.61474609375, -0.823486328125, 
42, 42449041, 0.8983774185180664, -0.005426369141787291, -0.2660142481327057, 0.3494639992713928, 4.819212436676025, -2.0864675045013428, 8.838506698608398, 5.708888530731201, 3.774142265319824, 0.9348042607307434, 0.00830078125, 0.61474609375, -0.824462890625, 
43, 42457374, 0.8985235691070557, -0.0052527133375406265, -0.2657643258571625, 0.3492814898490906, 4.854576587677002, -2.1308436393737793, 8.6730375289917, 5.211587429046631, 2.8447299003601074, 0.12939029932022095, 0.00537109375, 0.6171875, -0.823486328125, 
44, 42465707, 0.8986117839813232, -0.004764017648994923, -0.265254944562912, 0.3494485914707184, 4.891452789306641, -2.113980531692505, 8.745969772338867, 9.105810165405273, 4.257726669311523, -0.10573557019233704, 0.01025390625, 0.61669921875, -0.827392578125, 
45, 42474040, 0.8988057971000671, -0.004371931776404381, -0.26481738686561584, 0.3492860198020935, 4.907232284545898, -2.0110342502593994, 8.892017364501953, 9.520235061645508, 3.796145439147949, 0.29713794589042664, 0.0068359375, 0.61572265625, -0.825927734375, 
46, 42482373, 0.8988220691680908, -0.003943946212530136, -0.2644954323768616, 0.3494930565357208, 4.898517608642578, -1.9255955219268799, 8.882744789123535, 7.59437894821167, 1.9698246717453003, 0.9455880522727966, 0.01123046875, 0.6142578125, -0.830810546875, 
47, 42490706, 0.8989037871360779, -0.0036680903285741806, -0.2643270194530487, 0.3494134545326233, 4.936132431030273, -1.8672703504562378, 8.814037322998047, 6.8979268074035645, 0.5280503034591675, 2.0586037635803223, 0.0087890625, 0.61376953125, -0.831298828125, 
48, 42499039, 0.8988289833068848, -0.0032772051636129618, -0.2641834020614624, 0.3497183620929718, 4.852412223815918, -1.9162604808807373, 8.830388069152832, 6.6286444664001465, -0.39123183488845825, 2.7188870906829834, 0.00732421875, 0.61328125, -0.834228515625, 
49, 42507372, 0.8988414406776428, -0.0030177831649780273, -0.2641724944114685, 0.3496973216533661, 4.816147804260254, -2.0277745723724365, 8.920660018920898, 5.374699115753174, -1.3352699279785156, 2.119847059249878, 0.01025390625, 0.611328125, -0.834716796875, 
50, 42515705, 0.8987821936607361, -0.0027245180681347847, -0.26417118310928345, 0.34985288977622986, 4.782148838043213, -2.0589001178741455, 8.798503875732422, 4.197289943695068, -1.616898775100708, 1.1479148864746094, 0.01025390625, 0.61572265625, -0.833740234375, 
51, 42524038, 0.898851752281189, -0.0023830111604183912, -0.2640584111213684, 0.3497615456581116, 4.815736293792725, -2.077643394470215, 8.651768684387207, 6.0392866134643555, -0.1387779265642166, -0.3384665250778198, 0.00830078125, 0.61572265625, -0.837646484375, 
52, 42532371, 0.8989012241363525, -0.0017919506644830108, -0.26374468207359314, 0.3498745858669281, 4.848743438720703, -2.029261589050293, 8.632306098937988, 9.23006534576416, 1.2096068859100342, -0.9709333777427673, 0.01171875, 0.6123046875, -0.840087890625, 
53, 42540704, 0.8990644812583923, -0.0011823876993730664, -0.26337680220603943, 0.34973466396331787, 4.856090545654297, -1.9283761978149414, 8.704483985900879, 11.339934349060059, 1.937973141670227, -1.3341175317764282, 0.0068359375, 0.611083984375, -0.839111328125, 
54, 42549037, 0.899154007434845, -0.0005724336369894445, -0.2628791332244873, 0.3498806059360504, 4.907644748687744, -1.8452593088150024, 8.767333030700684, 10.468961715698242, 3.5396957397460938, -0.8220890164375305, 0.009765625, 0.61328125, -0.840576171875, 
55, 42557370, 0.8992998600006104, -0.00019742663425859064, -0.26250120997428894, 0.3497900664806366, 4.875126838684082, -1.8232059478759766, 8.694859504699707, 8.462573051452637, 3.385523796081543, -0.41635945439338684, 0.0078125, 0.6103515625, -0.841552734375, 
56, 42565703, 0.8993856906890869, 0.00025273681967519224, -0.26207318902015686, 0.3498902916908264, 4.9258503913879395, -1.8293324708938599, 8.69144058227539, 7.993101596832275, 3.435483694076538, -0.7904296517372131, 0.0087890625, 0.60888671875, -0.840087890625, 
57, 42574036, 0.8995715379714966, 0.00032798375468701124, -0.26176345348358154, 0.3496443033218384, 4.928219795227051, -1.761804461479187, 8.886754035949707, 3.6056394577026367, 4.11264705657959, -1.3833608627319336, 0.01025390625, 0.60888671875, -0.843505859375, 
58, 42582369, 0.8996677398681641, -0.00013405506615526974, -0.2617386281490326, 0.34941551089286804, 4.830102443695068, -1.7125290632247925, 8.9668607711792, -6.415712833404541, 2.8727900981903076, -1.6218551397323608, 0.01025390625, 0.60595703125, -0.839599609375, 
59, 42590702, 0.8997659683227539, -0.000809657562058419, -0.26202961802482605, 0.34894296526908875, 4.8572773933410645, -1.8816428184509277, 8.810426712036133, -9.837839126586914, 0.030007079243659973, -1.4414666891098022, 0.0087890625, 0.61328125, -0.842041015625, 
60, 42599035, 0.899808943271637, -0.0011592936934903264, -0.26210817694664, 0.348772257566452, 4.94876766204834, -1.9952584505081177, 8.629108428955078, -5.313109874725342, 0.8611122369766235, -1.0507729053497314, 0.0087890625, 0.61279296875, -0.840087890625, 
61, 42607368, 0.8999495506286621, -0.0012791521148756146, -0.26194921135902405, 0.3485284149646759, 4.928826332092285, -1.9852268695831299, 8.63431167602539, 0.2051188200712204, 2.8254294395446777, -0.1902625411748886, 0.00830078125, 0.6162109375, -0.839599609375, 
62, 42615701, 0.9000080227851868, -0.001281114760786295, -0.26170849800109863, 0.34855830669403076, 4.933441638946533, -1.868647813796997, 8.825135231018066, 1.2434303760528564, 3.197514772415161, 0.10866839438676834, 0.0078125, 0.61474609375, -0.840576171875, 
63, 42624034, 0.9001178741455078, -0.0015502733876928687, -0.26167553663253784, 0.34829798340797424, 4.863454818725586, -1.8741704225540161, 8.9434814453125, -1.9321584701538086, 2.2137105464935303, 0.5717352628707886, 0.00830078125, 0.61328125, -0.842041015625, 
64, 42632367, 0.9001362323760986, -0.001593908411450684, -0.2615188956260681, 0.3483680486679077, 4.822068214416504, -2.0001473426818848, 8.91733169555664, 0.46994438767433167, 2.2118148803710938, 0.9496222138404846, 0.009765625, 0.611328125, -0.843017578125, 
65, 42640700, 0.900159478187561, -0.0011981031857430935, -0.26125550270080566, 0.3485070466995239, 4.623238563537598, -2.136796712875366, 8.857555389404297, 8.247900009155273, 1.3573368787765503, 2.824084997177124, 0.00634765625, 0.610595703125, -0.842041015625, 
66, 42649033, 0.89985191822052, 0.00046953040873631835, -0.2609579265117645, 0.34952446818351746, 4.354525566101074, -2.229809045791626, 8.955097198486328, 25.725034713745117, -5.4309515953063965, 8.091516494750977, 0.009765625, 0.61181640625, -0.84423828125, 
67, 42657366, 0.9000268578529358, 0.0013229058822616935, -0.2605075538158417, 0.3494076430797577, 5.378364562988281, -1.6078697443008423, 9.212963104248047, 14.020669937133789, 1.9567228555679321, -2.766772985458374, 0.0087890625, 0.606689453125, -0.844970703125, 
68, 42665699, 0.9000453948974609, 0.0018068650970235467, -0.25998610258102417, 0.3497457802295685, 5.310645580291748, -1.7500336170196533, 8.661031723022461, 9.713098526000977, 4.2002739906311035, 2.3622987270355225, 0.01025390625, 0.60498046875, -0.845458984375, 
69, 42674032, 0.9000931978225708, 0.00291831255890429, -0.2592150568962097, 0.3501877188682556, 4.9014739990234375, -1.9053376913070679, 8.386348724365234, 20.520095825195312, 4.0671706199646, 3.657470703125, 0.009765625, 0.603759765625, -0.84716796875, 
70, 42682365, 0.9001460075378418, 0.00445854477584362, -0.2580491304397583, 0.35089612007141113, 4.831147193908691, -1.8166265487670898, 8.961800575256348, 27.209531784057617, 7.22777795791626, 2.9893622398376465, 0.011474609375, 0.601806640625, -0.85009765625, 
71, 42690698, 0.9001883268356323, 0.0053283413872122765, -0.257455438375473, 0.3512111306190491, 4.647219657897949, -1.6463624238967896, 9.443015098571777, 16.605560302734375, 3.8165218830108643, 3.0790369510650635, 0.013427734375, 0.596923828125, -0.85595703125, 
72, 42699031, 0.9001185894012451, 0.005540384445339441, -0.2575898766517639, 0.3512881100177765, 4.706840991973877, -1.6109429597854614, 9.22596549987793, 2.2604947090148926, -2.9313952922821045, 0.5611438751220703, 0.010498046875, 0.594482421875, -0.85498046875, 
73, 42707364, 0.9000481963157654, 0.00535725150257349, -0.2580491900444031, 0.3511342704296112, 4.894919395446777, -1.7275357246398926, 8.801552772521973, -4.141117572784424, -5.125395774841309, 0.5492973327636719, 0.013427734375, 0.594482421875, -0.85498046875, 
74, 42715697, 0.8999837636947632, 0.005312793422490358, -0.25825557112693787, 0.35114842653274536, 4.934031963348389, -1.8655139207839966, 8.662511825561523, -1.4837173223495483, -2.567685842514038, 0.6708368062973022, 0.010498046875, 0.595947265625, -0.85498046875, 
75, 42724030, 0.8999910354614258, 0.005629315506666899, -0.2581567168235779, 0.35119765996932983, 4.9120097160339355, -1.8805416822433472, 8.72856616973877, 5.1642656326293945, -0.17964543402194977, 0.37020254135131836, 0.01171875, 0.593994140625, -0.8525390625, 
76, 42732363, 0.8999737501144409, 0.006129783112555742, -0.2579869031906128, 0.35135823488235474, 4.848738193511963, -1.830067753791809, 8.826265335083008, 7.59413480758667, -0.36642447113990784, 0.29443565011024475, 0.014404296875, 0.5966796875, -0.8525390625, 
77, 42740696, 0.8999906778335571, 0.006553230341523886, -0.2579045593738556, 0.3513675928115845, 4.835018157958984, -1.7220710515975952, 8.863914489746094, 6.647457122802734, -0.6318391561508179, -0.16740183532238007, 0.010498046875, 0.596435546875, -0.85498046875, 
78, 42749029, 0.8999764323234558, 0.006841662339866161, -0.2578178644180298, 0.3514620363712311, 4.916014194488525, -1.6407160758972168, 8.916300773620605, 4.333518981933594, -0.3636837601661682, 0.22089718282222748, 0.01123046875, 0.591064453125, -0.85400390625, 
79, 42757362, 0.8999763131141663, 0.006982713937759399, -0.2578425407409668, 0.35144174098968506, 4.999230861663818, -1.6128350496292114, 8.924454689025879, 2.838595151901245, -0.9129809141159058, 1.2200828790664673, 0.01123046875, 0.594482421875, -0.85302734375, 
80, 42765695, 0.899895191192627, 0.007118712645024061, -0.2578832805156708, 0.35161688923835754, 4.927098274230957, -1.6665064096450806, 8.892330169677734, 2.1253669261932373, -1.4339361190795898, 2.0941431522369385, 0.014404296875, 0.593017578125, -0.85546875, 
81, 42774028, 0.8998480439186096, 0.00714969402179122, -0.25797948241233826, 0.3516663908958435, 4.844559192657471, -1.718717098236084, 8.839385032653809, 1.1832751035690308, -1.4814120531082153, 2.572796106338501, 0.014404296875, 0.593994140625, -0.85791015625, 
82, 42782361, 0.8997880220413208, 0.007192597258836031, -0.25796443223953247, 0.3518301248550415, 4.800963401794434, -1.7614070177078247, 8.818230628967285, 1.2011922597885132, -0.21907854080200195, 2.177171468734741, 0.011474609375, 0.591064453125, -0.8564453125, 
83, 42790694, 0.8997619152069092, 0.007307981140911579, -0.25794193148612976, 0.35191088914871216, 4.848026752471924, -1.7696012258529663, 8.823530197143555, 2.4131555557250977, -0.06961949169635773, 1.6459068059921265, 0.013671875, 0.592529296875, -0.853515625, 
84, 42799027, 0.8997214436531067, 0.007455314043909311, -0.2578922212123871, 0.35204771161079407, 4.912674427032471, -1.7342098951339722, 8.803472518920898, 2.5636773109436035, -0.23036161065101624, 1.3767651319503784, 0.01220703125, 0.590087890625, -0.85498046875, 
85, 42807360, 0.8997100591659546, 0.007555069401860237, -0.2578265368938446, 0.3521226942539215, 4.9278788566589355, -1.701925277709961, 8.749961853027344, 2.6248440742492676, 0.593712329864502, 1.8857707977294922, 0.01123046875, 0.589599609375, -0.85546875, 
86, 42815693, 0.8996807932853699, 0.007712181657552719, -0.25763532519340515, 0.3523341119289398, 4.826853275299072, -1.7568449974060059, 8.833187103271484, 3.632815361022949, 1.5212550163269043, 2.196702480316162, 0.013916015625, 0.588623046875, -0.85791015625, 
87, 42824026, 0.899695098400116, 0.007892650552093983, -0.25746282935142517, 0.3524196743965149, 4.815567493438721, -1.7433167695999146, 8.931818962097168, 4.073150157928467, 1.6916923522949219, 1.4192593097686768, 0.011962890625, 0.590087890625, -0.85791015625, 
88, 42832359, 0.8996779322624207, 0.008015396073460579, -0.2573666274547577, 0.3525311052799225, 4.805750846862793, -1.7377636432647705, 8.988003730773926, 2.392036199569702, 0.5451733469963074, 1.0325098037719727, 0.013916015625, 0.590087890625, -0.8564453125, 
89, 42840692, 0.8996742367744446, 0.008049437776207924, -0.2574525475502014, 0.3524766266345978, 4.806847095489502, -1.7636547088623047, 8.870706558227539, 0.5192261338233948, -0.990848183631897, 0.33995211124420166, 0.014404296875, 0.588134765625, -0.86083984375, 
90, 42849025, 0.8996440172195435, 0.008114579133689404, -0.2575336992740631, 0.3524928689002991, 4.887401580810547, -1.764055609703064, 8.832988739013672, 0.48541536927223206, -1.426354169845581, 0.14290180802345276, 0.014404296875, 0.586669921875, -0.85791015625, 
91, 42857358, 0.8996220827102661, 0.008279870264232159, -0.25752538442611694, 0.35255131125450134, 4.976038932800293, -1.7329691648483276, 8.817618370056152, 2.5640616416931152, -0.4425755739212036, 0.549194872379303, 0.014404296875, 0.585205078125, -0.85888671875, 
92, 42865691, 0.899596095085144, 0.00851552002131939, -0.2574198544025421, 0.35268911719322205, 4.923207759857178, -1.7232327461242676, 8.809901237487793, 3.929607629776001, 0.08749821782112122, 1.0007737874984741, 0.015380859375, 0.590087890625, -0.86181640625, 
93, 42874024, 0.8995615243911743, 0.008718138560652733, -0.25732505321502686, 0.35284164547920227, 4.86981725692749, -1.7258180379867554, 8.889419555664062, 3.673260450363159, 0.5245795249938965, 1.3952841758728027, 0.014404296875, 0.588623046875, -0.859375, 
94, 42882357, 0.8995220065116882, 0.008883515372872353, -0.2572484016418457, 0.35299426317214966, 4.8968186378479, -1.761988639831543, 8.958702087402344, 2.973940849304199, 0.023129653185606003, 1.5029664039611816, 0.013427734375, 0.584228515625, -0.859375, 
95, 42890690, 0.8995117545127869, 0.00877121090888977, -0.2568300664424896, 0.35332727432250977, 4.8977437019348145, -1.776875615119934, 9.052143096923828, 2.3679847717285156, 6.041475772857666, 5.292976379394531, 0.015380859375, 0.588134765625, -0.86376953125, 
96, 42899023, 0.8998256325721741, 0.008670663461089134, -0.25489839911460876, 0.3539290130138397, 4.914534091949463, -1.6558198928833008, 9.483715057373047, 10.240860939025879, 25.56228256225586, 6.058821201324463, 0.019287109375, 0.585693359375, -0.8623046875, 
97, 42907356, 0.9001753926277161, 0.008570726960897446, -0.25278440117836, 0.3545575737953186, 5.173898220062256, -1.6246801614761353, 9.386478424072266, 11.510714530944824, 28.171688079833984, 6.551333427429199, 0.023681640625, 0.58447265625, -0.86279296875, 
98, 42915689, 0.9002141952514648, 0.008016731590032578, -0.25191730260849, 0.35508865118026733, 5.083357810974121, -2.252392292022705, 7.086285591125488, -0.7777379751205444, 13.63192367553711, 8.22647476196289, 0.024169921875, 0.583984375, -0.85986328125, 
99, 42924022, 0.9006628394126892, 0.009659472852945328, -0.24964284896850586, 0.3555161654949188, 4.578621864318848, -2.370504856109619, 8.356493949890137, 33.11751174926758, 21.77471923828125, -2.418102502822876, 0.026611328125, 0.57861328125, -0.86376953125, 
100, 42932355, 0.9008758068084717, 0.012246148660779, -0.2474399358034134, 0.3564358055591583, 4.6105194091796875, -1.8082857131958008, 9.746572494506836, 45.94813919067383, 15.491393089294434, 1.1954699754714966, 0.031494140625, 0.5771484375, -0.86572265625, 
101, 42940688, 0.900985836982727, 0.014005962759256363, -0.24602244794368744, 0.35707348585128784, 4.709142208099365, -1.8144530057907104, 9.688425064086914, 31.502185821533203, 10.066454887390137, 1.4433379173278809, 0.027587890625, 0.572265625, -0.869140625, 
102, 42949021, 0.9010905027389526, 0.01529707107692957, -0.24536721408367157, 0.3572075366973877, 4.6767897605896, -1.8839795589447021, 9.129107475280762, 19.659700393676758, 2.159050226211548, -3.33019757270813, 0.031494140625, 0.5703125, -0.869140625, 
103, 42957354, 0.9011732339859009, 0.017369963228702545, -0.2444014996290207, 0.35756564140319824, 5.096601486206055, -1.8341397047042847, 8.504393577575684, 32.4115104675293, 2.0253193378448486, -1.8213402032852173, 0.031005859375, 0.5654296875, -0.87255859375, 
104, 42965687, 0.9011524319648743, 0.02001064643263817, -0.24257229268550873, 0.3587236702442169, 5.383057117462158, -1.8230241537094116, 8.881346702575684, 45.629154205322266, 9.889880180358887, 5.160791397094727, 0.032470703125, 0.56298828125, -0.8740234375, 
105, 42974020, 0.9010528326034546, 0.023165978491306305, -0.24025502800941467, 0.3603399991989136, 5.170734405517578, -1.9720211029052734, 9.08023452758789, 57.06551742553711, 13.673048973083496, 10.429841041564941, 0.034423828125, 0.5537109375, -0.88232421875, 
106, 42982353, 0.9008243083953857, 0.02722523920238018, -0.23777173459529877, 0.3622693419456482, 4.890260219573975, -1.8550982475280762, 9.431843757629395, 69.0638427734375, 10.513973236083984, 10.855257987976074, 0.033935546875, 0.545166015625, -0.8896484375, 
107, 42990686, 0.9005488157272339, 0.031749922782182693, -0.23540937900543213, 0.36412400007247925, 4.819851398468018, -1.574834942817688, 9.383173942565918, 74.77528381347656, 6.693596363067627, 9.637173652648926, 0.036376953125, 0.538818359375, -0.89501953125, 
108, 42999019, 0.9001944065093994, 0.03666241466999054, -0.2328663021326065, 0.3661683201789856, 4.889785289764404, -1.252819538116455, 9.404374122619629, 80.35729217529297, 6.6407856941223145, 10.098470687866211, 0.032470703125, 0.530029296875, -0.8994140625, 
109, 43007352, 0.8997670412063599, 0.04207487404346466, -0.23027126491069794, 0.36827197670936584, 5.119600296020508, -1.049423336982727, 8.978812217712402, 88.00138092041016, 4.633236885070801, 10.974648475646973, 0.037353515625, 0.517333984375, -0.90478515625, 
110, 43015685, 0.899048924446106, 0.04822029173374176, -0.22739450633525848, 0.3710494935512543, 5.237496376037598, -0.955542802810669, 8.473852157592773, 99.83424377441406, 3.8055667877197266, 16.899219512939453, 0.0380859375, 0.506103515625, -0.916015625, 
111, 43024018, 0.8981133699417114, 0.05459865555167198, -0.22447411715984344, 0.37419626116752625, 4.965009689331055, -0.9092365503311157, 8.979053497314453, 105.50819396972656, 2.9557080268859863, 23.561138153076172, 0.0419921875, 0.494873046875, -0.923583984375, 
112, 43032351, 0.8970141410827637, 0.060716062784194946, -0.22155840694904327, 0.3776123523712158, 4.977087497711182, -1.0628632307052612, 9.408896446228027, 101.9430160522461, 3.7033679485321045, 26.797107696533203, 0.0400390625, 0.4794921875, -0.929443359375, 
113, 43040684, 0.8958333134651184, 0.06641343235969543, -0.21905769407749176, 0.38090160489082336, 4.657098293304443, -1.1278256177902222, 9.868242263793945, 96.29605102539062, 1.638864517211914, 28.92453956604004, 0.04052734375, 0.4658203125, -0.941650390625, 
114, 43049017, 0.8944703340530396, 0.07144463807344437, -0.21734796464443207, 0.3841598927974701, 4.490674018859863, -0.8963797092437744, 10.402324676513672, 82.0121078491211, -6.421749114990234, 30.584190368652344, 0.04150390625, 0.456787109375, -0.949951171875, 
115, 43057350, 0.892795205116272, 0.07551269978284836, -0.21746130287647247, 0.38720184564590454, 5.130529880523682, -0.37967461347579956, 10.226763725280762, 61.447113037109375, -24.75086212158203, 36.24360656738281, 0.04248046875, 0.450439453125, -0.951416015625, 
116, 43065683, 0.8906552791595459, 0.07950914651155472, -0.21881714463233948, 0.39055171608924866, 4.920709609985352, 0.3804110288619995, 9.912470817565918, 54.10358810424805, -40.84674835205078, 42.002891540527344, 0.03759765625, 0.447509765625, -0.954833984375, 
117, 43074016, 0.8905071020126343, 0.07960078865289688, -0.22124512493610382, 0.38950181007385254, 5.404121398925781, 4.27089786529541, 12.929340362548828, -14.79127311706543, -31.73487663269043, -9.681794166564941, 0.03125, 0.446044921875, -0.958251953125, 
118, 43082349, 0.8894630074501038, 0.06792867928743362, -0.23398295044898987, 0.3866439163684845, 9.037036895751953, 4.659031867980957, 14.601322174072266, -218.70684814453125, -99.77509307861328, 20.078645706176758, 0.01953125, 0.47265625, -0.946533203125, 
119, 43090682, 0.8859017491340637, 0.05178310349583626, -0.25696849822998047, 0.38270634412765503, 7.936164855957031, 2.7368297576904297, 12.032014846801758, -329.062744140625, -210.44615173339844, 44.22422409057617, -0.00244140625, 0.5263671875, -0.912109375, 
120, 43099015, 0.8796913027763367, 0.04035862162709236, -0.2809114456176758, 0.38158029317855835, 5.355164527893066, -0.15837495028972626, 6.456070423126221, -264.7562255859375, -254.33949279785156, 76.42416381835938, -0.034423828125, 0.57177734375, -0.879638671875, 
121, 43107348, 0.8725120425224304, 0.033767666667699814, -0.2974855303764343, 0.3861153721809387, 4.288570404052734, -2.674159288406372, 4.728675365447998, -143.22023010253906, -191.7149200439453, 130.29786682128906, -0.05615234375, 0.606689453125, -0.850341796875, 
122, 43115681, 0.8659629821777344, 0.031963616609573364, -0.30673980712890625, 0.39369696378707886, 3.4515485763549805, -5.498124599456787, 6.281522750854492, -36.708675384521484, -124.731689453125, 137.447998046875, -0.0654296875, 0.621826171875, -0.839111328125, 
123, 43124014, 0.8614187240600586, 0.034412089735269547, -0.3120189607143402, 0.39927172660827637, 4.22122859954834, -5.866329669952393, 8.306463241577148, 27.6358585357666, -93.29531860351562, 85.31581115722656, -0.069580078125, 0.621826171875, -0.83154296875, 
124, 43132347, 0.8574084043502808, 0.0391225703060627, -0.31740427017211914, 0.4032058119773865, 6.5992255210876465, -3.0221006870269775, 9.422003746032715, 45.0294189453125, -105.00468444824219, 50.988372802734375, -0.075439453125, 0.621337890625, -0.830078125, 
125, 43140680, 0.852482795715332, 0.04284040257334709, -0.323742538690567, 0.40820202231407166, 7.884537220001221, -0.5694566369056702, 9.35811996459961, 33.537479400634766, -112.16548156738281, 73.64968872070312, -0.086181640625, 0.62060546875, -0.82470703125, 
126, 43149013, 0.847440779209137, 0.04432433098554611, -0.3306903839111328, 0.412945419549942, 6.903806686401367, -1.035538673400879, 9.805673599243164, 2.504075765609741, -109.43339538574219, 81.42790222167969, -0.093994140625, 0.625, -0.8173828125, 
127, 43157346, 0.8423022031784058, 0.04472384974360466, -0.3385865390300751, 0.4169965088367462, 6.7136712074279785, -1.6152877807617188, 8.868185997009277, -18.6036376953125, -115.12966918945312, 79.4292221069336, -0.10205078125, 0.631103515625, -0.8037109375, 
128, 43165679, 0.8374267220497131, 0.043502699583768845, -0.34675168991088867, 0.4202232360839844, 6.928097248077393, -1.6366039514541626, 8.449522972106934, -42.92339324951172, -108.29011535644531, 76.07189178466797, -0.10986328125, 0.641357421875, -0.794189453125, 
129, 43174012, 0.8335434198379517, 0.039305731654167175, -0.35481902956962585, 0.4216206967830658, 7.569337844848633, -1.3822741508483887, 7.399275302886963, -85.95408630371094, -86.25889587402344, 63.43396759033203, -0.11328125, 0.654541015625, -0.780517578125, 
130, 43182345, 0.8293141722679138, 0.03549804165959358, -0.36247017979621887, 0.4237844944000244, 7.576329231262207, -1.7229044437408447, 6.559714317321777, -75.14237213134766, -85.08987426757812, 72.06973266601562, -0.116943359375, 0.666015625, -0.760498046875, 
131, 43190678, 0.8244098424911499, 0.03358425572514534, -0.3697507083415985, 0.4272061884403229, 7.290795803070068, -2.0299999713897705, 7.002369403839111, -44.839229583740234, -94.40430450439453, 80.86176300048828, -0.11669921875, 0.67626953125, -0.746337890625, 
132, 43199011, 0.8191860318183899, 0.03266206011176109, -0.37637272477149963, 0.4315219521522522, 7.507709503173828, -2.2808780670166016, 7.364131450653076, -24.979366302490234, -94.22281646728516, 87.39527130126953, -0.1162109375, 0.680908203125, -0.732666015625, 
133, 43207344, 0.8138564229011536, 0.03207884356379509, -0.3818631172180176, 0.43679454922676086, 8.315800666809082, -2.1621572971343994, 8.109686851501465, -9.691580772399902, -82.26897430419922, 97.28298950195312, -0.1171875, 0.685302734375, -0.724853515625, 
134, 43215677, 0.8084441423416138, 0.031229758635163307, -0.3867628574371338, 0.4425579011440277, 8.586893081665039, -2.151609182357788, 8.807269096374512, -6.26076078414917, -75.61515045166016, 103.66423797607422, -0.113037109375, 0.684326171875, -0.71337890625, 
135, 43224010, 0.8024536371231079, 0.03111271560192108, -0.39266762137413025, 0.44823235273361206, 7.82342004776001, -2.08408260345459, 8.93282413482666, -4.501612663269043, -94.17811584472656, 102.84602355957031, -0.109619140625, 0.67919921875, -0.7041015625, 
136, 43232343, 0.7959811091423035, 0.03172311559319496, -0.3994327187538147, 0.4537193775177002, 8.238337516784668, -1.8956141471862793, 7.866979598999023, -2.544619560241699, -111.01715850830078, 100.07666778564453, -0.10888671875, 0.67724609375, -0.6953125, 
137, 43240676, 0.7897561192512512, 0.03184415400028229, -0.4057983160018921, 0.45891058444976807, 8.407549858093262, -0.9873316287994385, 7.355360984802246, -7.165800094604492, -102.2961654663086, 97.86182403564453, -0.10498046875, 0.669921875, -0.6865234375, 
138, 43249009, 0.7834778428077698, 0.029989270493388176, -0.4119095206260681, 0.4643206000328064, 8.690028190612793, -0.23013116419315338, 7.12111759185791, -25.75226593017578, -87.3292465209961, 111.43572235107422, -0.101318359375, 0.662109375, -0.6787109375, 
139, 43257342, 0.7768875360488892, 0.02540821209549904, -0.418112576007843, 0.4700873792171478, 8.43278980255127, -0.20732802152633667, 6.252096176147461, -53.64549255371094, -72.35826873779297, 132.93179321289062, -0.095458984375, 0.657470703125, -0.66796875, 
140, 43265675, 0.7698003053665161, 0.01898079738020897, -0.4240155518054962, 0.47671598196029663, 7.937465667724609, -0.5692813992500305, 5.504721641540527, -66.21928405761719, -59.94641876220703, 155.684326171875, -0.09130859375, 0.655517578125, -0.6591796875, 
141, 43274008, 0.7622455358505249, 0.012829281389713287, -0.42927658557891846, 0.48429229855537415, 7.903133392333984, -1.5328558683395386, 5.317383289337158, -53.707275390625, -57.01271438598633, 167.54234313964844, -0.07861328125, 0.6484375, -0.64697265625, 
142, 43282341, 0.7547206878662109, 0.006702444516122341, -0.43415912985801697, 0.4917904734611511, 7.3651204109191895, -1.5218406915664673, 6.329214096069336, -51.1291618347168, -53.47142028808594, 165.77687072753906, -0.06982421875, 0.641357421875, -0.64208984375, 
143, 43290674, 0.7469514608383179, 0.0004610838077496737, -0.4397333264350891, 0.49869632720947266, 6.3639726638793945, -1.896498203277588, 5.942944049835205, -63.39425277709961, -56.57588195800781, 168.380126953125, -0.060791015625, 0.641357421875, -0.63720703125, 
144, 43299007, 0.7388433218002319, -0.00607292028144002, -0.4451112449169159, 0.5059149861335754, 6.34566593170166, -2.540156602859497, 5.056520938873291, -60.27690505981445, -59.414886474609375, 169.33628845214844, -0.058349609375, 0.63525390625, -0.630859375, 
145, 43307340, 0.7313475012779236, -0.012396903708577156, -0.44921383261680603, 0.5130148530006409, 6.368296146392822, -2.7354862689971924, 4.450939178466797, -51.23267364501953, -42.26887512207031, 165.5207977294922, -0.049072265625, 0.6337890625, -0.626953125, 
146, 43315673, 0.7245756387710571, -0.01904298923909664, -0.4519089162349701, 0.5200058817863464, 6.145389556884766, -2.829693555831909, 4.6593098640441895, -43.809505462646484, -23.237083435058594, 158.72000122070312, -0.039794921875, 0.629150390625, -0.6240234375, 
147, 43324006, 0.7180609703063965, -0.02538137324154377, -0.4538922607898712, 0.5269973278045654, 6.337851524353027, -3.1509010791778564, 5.269947528839111, -35.75603485107422, -16.475400924682617, 155.57057189941406, -0.036865234375, 0.628173828125, -0.62158203125, 
148, 43332339, 0.7115722298622131, -0.03138573095202446, -0.45562949776649475, 0.5339307188987732, 6.244134902954102, -3.358543634414673, 5.768471717834473, -30.85895538330078, -16.554990768432617, 152.39886474609375, -0.024169921875, 0.623046875, -0.6201171875, 
149, 43340672, 0.7050649523735046, -0.03766191750764847, -0.4576440751552582, 0.540395200252533, 5.932463645935059, -3.4731810092926025, 5.65029239654541, -38.713722229003906, -16.834291458129883, 150.07582092285156, -0.019287109375, 0.6220703125, -0.61865234375, 
150, 43349005, 0.6985543966293335, -0.04433979094028473, -0.45989370346069336, 0.5464007258415222, 5.596295356750488, -3.8551321029663086, 4.937044143676758, -47.032859802246094, -16.262950897216797, 147.5124969482422, -0.011962890625, 0.623779296875, -0.615234375, 
151, 43357338, 0.6922244429588318, -0.050353873521089554, -0.46181952953338623, 0.5522797107696533, 4.872035980224609, -4.364315032958984, 4.541894435882568, -39.472286224365234, -16.06484603881836, 142.35313415527344, -0.00439453125, 0.619873046875, -0.61181640625, 
152, 43365671, 0.6861811280250549, -0.05501570925116539, -0.4632371664047241, 0.5581582188606262, 4.333765029907227, -4.86376428604126, 4.426173686981201, -21.98719596862793, -20.530824661254883, 130.5191650390625, 0.0009765625, 0.62744140625, -0.60595703125, 
153, 43374004, 0.68057781457901, -0.05805618688464165, -0.4640469551086426, 0.564007043838501, 4.510408878326416, -4.9942779541015625, 4.419027328491211, -2.0180554389953613, -24.188066482543945, 117.37126922607422, 0.00244140625, 0.623046875, -0.60791015625, 
154, 43382337, 0.6752515435218811, -0.05990574508905411, -0.46407604217529297, 0.5701582431793213, 5.204497337341309, -5.005800724029541, 4.802879810333252, 17.47303009033203, -24.820058822631836, 110.6993408203125, 0.0087890625, 0.6181640625, -0.60888671875, 
155, 43390670, 0.6698009967803955, -0.06157723814249039, -0.46450167894363403, 0.5760323405265808, 5.226495265960693, -4.390105247497559, 5.805483818054199, 14.047696113586426, -30.280813217163086, 107.92782592773438, 0.01416015625, 0.6162109375, -0.60888671875, 
156, 43399003, 0.6640617847442627, -0.06389505416154861, -0.4663071036338806, 0.5809452533721924, 4.722658157348633, -4.637348175048828, 5.610799312591553, -9.119163513183594, -39.081844329833984, 104.0328140258789, 0.0166015625, 0.61279296875, -0.6123046875, 
157, 43407336, 0.658552885055542, -0.06590496003627777, -0.4683268964290619, 0.5853500366210938, 4.636813640594482, -5.564585208892822, 5.010788440704346, -11.388688087463379, -41.01463317871094, 96.31243133544922, 0.0166015625, 0.614013671875, -0.60791015625, 
158, 43415669, 0.653588056564331, -0.06646290421485901, -0.469527006149292, 0.5898727774620056, 4.521204948425293, -6.185949325561523, 5.318000793457031, 9.922264099121094, -42.441619873046875, 83.46847534179688, 0.02392578125, 0.611083984375, -0.6083984375, 
159, 43424002, 0.6490374207496643, -0.06532105058431625, -0.4706302285194397, 0.5941303372383118, 4.707831859588623, -6.274580478668213, 5.648718357086182, 24.378284454345703, -51.95938491821289, 67.65313720703125, 0.01806640625, 0.611083984375, -0.611328125, 
160, 43432335, 0.6446511149406433, -0.06314224004745483, -0.4722824692726135, 0.5978187918663025, 4.580156326293945, -6.283966541290283, 5.466977119445801, 25.88555908203125, -64.24043273925781, 53.213802337646484, 0.017578125, 0.60693359375, -0.6142578125, 
161, 43440668, 0.6407191157341003, -0.05848700925707817, -0.47438302636146545, 0.6008486747741699, 4.490006446838379, -6.6633195877075195, 5.389217376708984, 38.6812629699707, -82.08773803710938, 32.13798141479492, 0.01123046875, 0.60595703125, -0.615234375, 
162, 43449001, 0.6375345587730408, -0.05215676873922348, -0.4766666889190674, 0.6030078530311584, 4.55470085144043, -7.050093650817871, 5.595564365386963, 48.43521499633789, -94.92852783203125, 2.2461605072021484, -0.00048828125, 0.597412109375, -0.615234375, 
163, 43457334, 0.6373463869094849, -0.04382844269275665, -0.4807560443878174, 0.6006184816360474, 3.7082865238189697, -7.280933856964111, 7.232557773590088, 21.486051559448242, -100.82870483398438, -70.86445617675781, -0.01416015625, 0.58984375, -0.61962890625, 
164, 43465667, 0.6391528844833374, -0.03479166701436043, -0.48760169744491577, 0.593732476234436, 4.693839073181152, -6.939362049102783, 7.295016288757324, -21.773609161376953, -118.53704833984375, -139.10140991210938, -0.037109375, 0.591552734375, -0.61865234375, 
165, 43474000, 0.6426243782043457, -0.024899255484342575, -0.4942795932292938, 0.5848947763442993, 6.989949703216553, -6.820863723754883, 4.874770164489746, -25.674997329711914, -111.14859771728516, -174.0155792236328, -0.067138671875, 0.589111328125, -0.613525390625, 
166, 43482333, 0.6479415893554688, -0.01639142818748951, -0.49878281354904175, 0.5754293203353882, 7.18723726272583, -6.516362190246582, 5.1261091232299805, -23.561132431030273, -68.83273315429688, -185.7425079345703, -0.095458984375, 0.588134765625, -0.611083984375, 
167, 43490666, 0.6556861996650696, -0.010740923695266247, -0.5022658109664917, 0.5636396408081055, 6.617334365844727, -6.836651802062988, 5.592612266540527, -56.550540924072266, -19.67928695678711, -205.25390625, -0.11767578125, 0.5888671875, -0.60498046875, 
168, 43498999, 0.6677722334861755, -0.007622657809406519, -0.5032899379730225, 0.5483809113502502, 6.648461818695068, -7.859498023986816, 4.729518890380859, -83.44173431396484, 52.34328079223633, -252.91696166992188, -0.13623046875, 0.590087890625, -0.59912109375, 
169, 43507332, 0.6838729381561279, -0.00441250205039978, -0.5001792907714844, 0.5311487913131714, 7.3534111976623535, -8.075224876403809, 4.8989787101745605, -64.8520278930664, 117.83897399902344, -301.0315246582031, -0.15185546875, 0.58935546875, -0.59814453125, 
170, 43515665, 0.7005935311317444, 0.0012076470302417874, -0.4950316250324249, 0.5139173269271851, 7.864652633666992, -7.340887069702148, 5.870004653930664, -27.064838409423828, 123.43946838378906, -322.5059509277344, -0.16650390625, 0.586181640625, -0.6005859375, 
171, 43523998, 0.7152329683303833, 0.009706813842058182, -0.49062326550483704, 0.49763092398643494, 8.569188117980957, -6.477012634277344, 6.6085052490234375, 1.8350884914398193, 81.90319061279297, -318.08984375, -0.1865234375, 0.575927734375, -0.602783203125, 
172, 43532331, 0.7267998456954956, 0.019591107964515686, -0.4882798492908478, 0.4826604425907135, 9.473533630371094, -6.2466044425964355, 6.551532745361328, 10.698183059692383, 31.465417861938477, -293.3683166503906, -0.204833984375, 0.560546875, -0.604248046875, 
173, 43540664, 0.735198438167572, 0.03006492368876934, -0.4870794713497162, 0.4704606533050537, 10.196819305419922, -5.989565849304199, 5.978583812713623, 28.420848846435547, -4.362446308135986, -248.20281982421875, -0.233642578125, 0.54931640625, -0.609130859375, 
174, 43548997, 0.7415170669555664, 0.040746308863162994, -0.4855085015296936, 0.46127456426620483, 10.224283218383789, -5.586833477020264, 5.796258926391602, 54.003257751464844, -14.684537887573242, -205.9013214111328, -0.251708984375, 0.53759765625, -0.611083984375, 
175, 43557330, 0.7471761107444763, 0.052015069872140884, -0.4831099212169647, 0.45346152782440186, 9.947595596313477, -5.173332691192627, 6.542661666870117, 74.7560043334961, -13.5780029296875, -192.0502471923828, -0.27001953125, 0.522216796875, -0.6162109375, 
176, 43565663, 0.752011239528656, 0.064264677464962, -0.4808575510978699, 0.44623488187789917, 10.241240501403809, -4.493940830230713, 6.956596374511719, 88.43268585205078, -26.27806282043457, -187.35028076171875, -0.2900390625, 0.501220703125, -0.62158203125, 
177, 43573996, 0.755397617816925, 0.0767306312918663, -0.47906163334846497, 0.4404395818710327, 10.60848331451416, -3.573840618133545, 7.094532489776611, 98.58731079101562, -40.608238220214844, -164.628662109375, -0.30712890625, 0.48095703125, -0.62890625, 
178, 43582329, 0.7572839260101318, 0.0875890851020813, -0.47776928544044495, 0.4365614652633667, 10.853808403015137, -3.0584588050842285, 7.2525763511657715, 93.07642364501953, -43.994529724121094, -124.55899047851562, -0.328857421875, 0.46044921875, -0.6337890625, 
179, 43590662, 0.7577539086341858, 0.09656020253896713, -0.47688934206962585, 0.43481260538101196, 10.560188293457031, -3.530881404876709, 7.659779071807861, 86.61670684814453, -43.67021560668945, -80.93360900878906, -0.339599609375, 0.444091796875, -0.634033203125, 
180, 43598995, 0.7572425007820129, 0.10488933324813843, -0.47660449147224426, 0.43408581614494324, 9.62923526763916, -4.505516052246094, 7.9967827796936035, 84.39803314208984, -51.14146423339844, -59.464473724365234, -0.353271484375, 0.43408203125, -0.634521484375, 
181, 43607328, 0.755949854850769, 0.11398138850927353, -0.47758749127388, 0.4329647719860077, 9.16339111328125, -5.545578956604004, 7.58125638961792, 83.29661560058594, -74.56112670898438, -62.034339904785156, -0.3671875, 0.419677734375, -0.640869140625, 
182, 43615661, 0.7539504766464233, 0.1250605285167694, -0.47966986894607544, 0.4310866594314575, 8.950965881347656, -6.276838779449463, 6.5221476554870605, 93.56592559814453, -103.67642211914062, -77.06929779052734, -0.38525390625, 0.407470703125, -0.640380859375, 
183, 43623994, 0.7518056035041809, 0.1383160799741745, -0.48161813616752625, 0.42860376834869385, 9.061246871948242, -6.578868865966797, 5.85418176651001, 113.166015625, -117.16484832763672, -97.01982116699219, -0.406494140625, 0.38623046875, -0.63818359375, 
184, 43632327, 0.7498629093170166, 0.1520896852016449, -0.48330575227737427, 0.4254293441772461, 9.694525718688965, -5.673399925231934, 6.35526180267334, 115.11565399169922, -117.52530670166016, -109.33307647705078, -0.43212890625, 0.36474609375, -0.6357421875, 
185, 43640660, 0.7483029961585999, 0.16456544399261475, -0.4851464033126831, 0.42141929268836975, 9.689641952514648, -4.641637802124023, 6.305116653442383, 94.4645004272461, -110.68132019042969, -111.20194244384766, -0.45068359375, 0.3466796875, -0.63623046875, 
186, 43648993, 0.7469558715820312, 0.17602384090423584, -0.4867985248565674, 0.4172530472278595, 9.368359565734863, -4.421769142150879, 5.813127040863037, 83.58089447021484, -101.80896759033203, -107.72276306152344, -0.470458984375, 0.326904296875, -0.629638671875, 
187, 43657326, 0.7456254363059998, 0.1874791532754898, -0.487761914730072, 0.41350051760673523, 9.336204528808594, -4.398446083068848, 5.810504913330078, 90.22068786621094, -93.57965850830078, -105.1900863647461, -0.49072265625, 0.30859375, -0.623779296875, 
188, 43665659, 0.7445610165596008, 0.1989460587501526, -0.4880709648132324, 0.40967801213264465, 8.865655899047852, -4.647799491882324, 6.057458400726318, 92.91490936279297, -85.35530090332031, -109.2107162475586, -0.51123046875, 0.2890625, -0.619384765625, 
189, 43673992, 0.7439544200897217, 0.21099741756916046, -0.4881899356842041, 0.4045770764350891, 8.462987899780273, -5.318581581115723, 6.454741954803467, 90.13250732421875, -87.08582305908203, -129.30332946777344, -0.527587890625, 0.266845703125, -0.61767578125, 
190, 43682325, 0.743177056312561, 0.2239900827407837, -0.4889994263648987, 0.39799025654792786, 8.727392196655273, -4.670897006988525, 5.836731433868408, 86.44644165039062, -104.88817596435547, -147.89208984375, -0.55224609375, 0.242431640625, -0.60693359375, 
191, 43690658, 0.7410592436790466, 0.23841345310211182, -0.49072402715682983, 0.39138263463974, 8.705320358276367, -3.7415475845336914, 4.4229350090026855, 100.06315612792969, -131.12527465820312, -147.5962371826172, -0.567138671875, 0.2177734375, -0.600341796875, 
192, 43698991, 0.7375352382659912, 0.2545800805091858, -0.49234798550605774, 0.38577771186828613, 8.702258110046387, -2.911654233932495, 3.850942611694336, 129.73504638671875, -145.711669921875, -141.87721252441406, -0.593017578125, 0.189453125, -0.588134765625, 
193, 43707324, 0.7332914471626282, 0.2722818851470947, -0.49271345138549805, 0.38128724694252014, 8.976119041442871, -2.2018210887908936, 4.462117671966553, 162.13038635253906, -142.03030395507812, -141.7495574951172, -0.61083984375, 0.158447265625, -0.5771484375, 
194, 43715657, 0.7284762263298035, 0.29050660133361816, -0.4926213026046753, 0.3771642744541168, 9.191497802734375, -1.6644059419631958, 5.3766703605651855, 174.35353088378906, -142.6872100830078, -140.11322021484375, -0.634521484375, 0.122802734375, -0.56494140625, 
195, 43723990, 0.723071277141571, 0.3083202540874481, -0.4936952590942383, 0.37198352813720703, 9.38970947265625, -1.4076006412506104, 5.688623428344727, 160.16989135742188, -160.3709259033203, -142.3313446044922, -0.654541015625, 0.091064453125, -0.553466796875, 
196, 43732323, 0.7169173359870911, 0.3256126642227173, -0.4966241121292114, 0.3651995062828064, 9.916954040527344, -0.5774821639060974, 5.548872470855713, 136.9951934814453, -188.12255859375, -140.91583251953125, -0.67333984375, 0.06005859375, -0.5322265625, 
197, 43740656, 0.7109235525131226, 0.34070897102355957, -0.5011137127876282, 0.3569178581237793, 9.427739143371582, -0.281626433134079, 4.7098894119262695, 96.68048095703125, -198.15440368652344, -134.84364318847656, -0.69873046875, 0.028564453125, -0.50927734375, 
198, 43748989, 0.7057327628135681, 0.3532470166683197, -0.505874514579773, 0.34820815920829773, 9.59511947631836, 0.4560229480266571, 3.1268301010131836, 63.50373840332031, -184.65354919433594, -123.7209701538086, -0.71923828125, 0.008544921875, -0.487548828125, 
199, 43757322, 0.7008811235427856, 0.36372876167297363, -0.5104861259460449, 0.34039822220802307, 9.494559288024902, 0.9818276762962341, 2.3157920837402344, 48.995506286621094, -166.7574005126953, -103.40380859375, -0.734130859375, -0.011962890625, -0.46728515625, 
200, 43765655, 0.6959970593452454, 0.37314432859420776, -0.515059769153595, 0.3332640826702118, 9.082234382629395, 0.6967490911483765, 2.028135299682617, 43.68218231201172, -158.11581420898438, -89.07190704345703, -0.751708984375, -0.02587890625, -0.44287109375, 
201, 43773988, 0.6909085512161255, 0.3818463981151581, -0.5196335315704346, 0.3268330693244934, 8.619852066040039, 0.42739975452423096, 1.7612820863723755, 44.17795944213867, -154.3041534423828, -80.90908813476562, -0.763671875, -0.040283203125, -0.423095703125, 
202, 43782321, 0.68619304895401, 0.39046961069107056, -0.5232590436935425, 0.3207381069660187, 8.064356803894043, -0.3747429847717285, 1.4942595958709717, 46.83660888671875, -138.89186096191406, -79.25081634521484, -0.77734375, -0.05859375, -0.400634765625, 
203, 43790654, 0.6826043725013733, 0.39874953031539917, -0.5249791145324707, 0.31535235047340393, 7.891103744506836, -1.0534218549728394, 1.5596699714660645, 51.27323532104492, -107.76960754394531, -86.1371841430664, -0.783447265625, -0.07373046875, -0.3876953125, 
204, 43798987, 0.6797890067100525, 0.4069204330444336, -0.5256783962249756, 0.3097822070121765, 7.667057991027832, -1.4387401342391968, 1.9511618614196777, 48.89095687866211, -92.85496520996094, -95.1881103515625, -0.79443359375, -0.090576171875, -0.373046875, 
205, 43807320, 0.6769437789916992, 0.41537514328956604, -0.5261849164962769, 0.303875207901001, 7.873421669006348, -1.12298583984375, 1.4416463375091553, 50.14877700805664, -94.43191528320312, -101.56510162353516, -0.800048828125, -0.106201171875, -0.356201171875, 
206, 43815653, 0.6737178564071655, 0.4240635931491852, -0.5267184972763062, 0.2980642318725586, 7.806827068328857, -0.5249613523483276, 1.1060726642608643, 55.0327262878418, -97.79915618896484, -100.39139556884766, -0.806640625, -0.125244140625, -0.345947265625, 
207, 43823986, 0.6701796054840088, 0.43288663029670715, -0.527504563331604, 0.29190364480018616, 7.804007530212402, -0.30825597047805786, 1.1982263326644897, 54.582359313964844, -105.06101989746094, -102.09712982177734, -0.810791015625, -0.145751953125, -0.326416015625, 
208, 43832319, 0.6664775013923645, 0.44165828824043274, -0.5283912420272827, 0.28556743264198303, 7.962888240814209, 0.023496456444263458, 0.9751903414726257, 53.35789108276367, -107.94530487060547, -101.84353637695312, -0.81787109375, -0.1611328125, -0.3115234375, 
209, 43840652, 0.6630914807319641, 0.44952788949012756, -0.5293990969657898, 0.27923333644866943, 7.929693222045898, 0.43714526295661926, 1.1447898149490356, 42.74986267089844, -103.27281188964844, -96.00611114501953, -0.820556640625, -0.18115234375, -0.29833984375, 
210, 43848985, 0.6600229740142822, 0.4563365578651428, -0.5308619737625122, 0.2726033926010132, 7.853665828704834, 0.7772652506828308, 1.0504474639892578, 27.171669006347656, -102.79615020751953, -89.15530395507812, -0.82666015625, -0.19482421875, -0.28125, 
211, 43857318, 0.6576794385910034, 0.461993545293808, -0.5323816537857056, 0.26568692922592163, 7.457668304443359, 0.7407765984535217, 0.8286128640174866, 9.909075736999512, -95.58393859863281, -85.99813079833984, -0.828369140625, -0.20751953125, -0.269287109375, 
212, 43865651, 0.6561658978462219, 0.4669843316078186, -0.5334370732307434, 0.25848960876464844, 7.279980659484863, 0.3394739329814911, 0.775244414806366, -1.7941985130310059, -84.572998046875, -89.35462951660156, -0.833984375, -0.218994140625, -0.251708984375, 
213, 43873984, 0.6551069021224976, 0.4719374179840088, -0.5338640809059143, 0.2511955797672272, 7.390669345855713, 0.37260502576828003, 0.7712002396583557, -3.4955694675445557, -76.12732696533203, -95.83633422851562, -0.833740234375, -0.232177734375, -0.242431640625, 
214, 43882317, 0.6540781855583191, 0.47658056020736694, -0.5345881581306458, 0.24345062673091888, 7.3938164710998535, 1.0049070119857788, 0.8623319268226624, -10.85326099395752, -80.36470794677734, -95.56474304199219, -0.833740234375, -0.24658203125, -0.229736328125, 
215, 43890650, 0.6534033417701721, 0.48022499680519104, -0.535724937915802, 0.23547197878360748, 7.260218620300293, 1.269565463066101, 0.4736999571323395, -25.230632781982422, -79.71827697753906, -88.99267578125, -0.8330078125, -0.25732421875, -0.2216796875, 
216, 43898983, 0.6530699133872986, 0.48319435119628906, -0.5369241833686829, 0.22745466232299805, 7.527991771697998, 1.4320470094680786, 0.2354985475540161, -34.062744140625, -75.77873229980469, -84.87223052978516, -0.833740234375, -0.267578125, -0.2109375, 
217, 43907316, 0.6525434255599976, 0.48565298318862915, -0.5385990738868713, 0.2196347713470459, 7.327981948852539, 2.4261510372161865, -0.00851994939148426, -37.372093200683594, -78.62702178955078, -75.77266693115234, -0.835693359375, -0.277099609375, -0.20361328125, 
218, 43915649, 0.6518857479095459, 0.4869212508201599, -0.5417235493659973, 0.21092285215854645, 6.713690757751465, 2.6834332942962646, 0.1706833839416504, -58.18688201904297, -94.91015625, -64.67416381835938, -0.8359375, -0.28466796875, -0.19287109375, 
219, 43923982, 0.6509808301925659, 0.48801618814468384, -0.5455235242843628, 0.20116782188415527, 7.170391082763672, 2.506207227706909, -0.2420569658279419, -67.79106140136719, -109.36002349853516, -67.76206970214844, -0.840087890625, -0.289306640625, -0.18212890625, 
220, 43932315, 0.6500389575958252, 0.4894825518131256, -0.5486933588981628, 0.19181238114833832, 7.5356526374816895, 2.5719332695007324, -0.6093636155128479, -59.500244140625, -102.2707290649414, -70.83052825927734, -0.837646484375, -0.29296875, -0.171142578125, 
221, 43940648, 0.649875283241272, 0.49049142003059387, -0.5509019494056702, 0.18326878547668457, 7.665511608123779, 2.8394784927368164, -0.28395187854766846, -60.151187896728516, -81.18999481201172, -68.85926055908203, -0.83740234375, -0.3046875, -0.161376953125, 
222, 43948981, 0.6501729488372803, 0.49079564213752747, -0.5527927875518799, 0.17554184794425964, 8.164599418640137, 3.201538324356079, -0.42300426959991455, -62.58779525756836, -67.51588439941406, -59.31188201904297, -0.83935546875, -0.3076171875, -0.155517578125, 
223, 43957314, 0.6505857706069946, 0.4905071556568146, -0.5545647144317627, 0.16911253333091736, 8.339719772338867, 3.2462685108184814, -0.2635400593280792, -58.4854621887207, -55.48652648925781, -44.706058502197266, -0.8359375, -0.31396484375, -0.151123046875, 
224, 43965647, 0.6508767604827881, 0.48991599678993225, -0.5564011335372925, 0.16358418762683868, 8.408185005187988, 3.1827456951141357, -0.21104717254638672, -53.67857360839844, -50.11151885986328, -33.19902801513672, -0.834716796875, -0.314453125, -0.145751953125, 
225, 43973980, 0.6509991884231567, 0.4891548454761505, -0.5583781003952026, 0.1585613489151001, 8.174442291259766, 2.7395598888397217, 0.01611993834376335, -50.43174362182617, -49.17646026611328, -27.383934020996094, -0.835693359375, -0.3212890625, -0.140380859375, 
226, 43982313, 0.6512743234634399, 0.4882829785346985, -0.5602490305900574, 0.1534368097782135, 7.7828450202941895, 2.3156330585479736, -0.08159074932336807, -53.0814323425293, -47.19379425048828, -27.15347671508789, -0.837158203125, -0.31787109375, -0.139404296875, 
227, 43990646, 0.6519176959991455, 0.4873031973838806, -0.5617017149925232, 0.14842605590820312, 7.523248672485352, 2.2705020904541016, -0.35893794894218445, -54.68698501586914, -39.89131546020508, -30.1147518157959, -0.833740234375, -0.31787109375, -0.135986328125, 
228, 43998979, 0.6528679132461548, 0.48629826307296753, -0.5628297924995422, 0.14317959547042847, 7.053832054138184, 2.2010860443115234, -0.4729122519493103, -58.19865417480469, -35.86610412597656, -33.61119842529297, -0.835205078125, -0.322265625, -0.131591796875, 
229, 44007312, 0.6537373065948486, 0.4856760799884796, -0.5638236999511719, 0.13729293644428253, 6.837426662445068, 2.172755002975464, -0.6229183077812195, -58.88776779174805, -40.412261962890625, -43.477359771728516, -0.832275390625, -0.32275390625, -0.130615234375, 
230, 44015645, 0.6543442010879517, 0.48598507046699524, -0.5643782019615173, 0.13088014721870422, 7.134678840637207, 2.594973087310791, -0.8336259126663208, -52.03588104248047, -43.680233001708984, -57.44818115234375, -0.8310546875, -0.32861328125, -0.130126953125, 
231, 44023978, 0.6544524431228638, 0.48685887455940247, -0.564923107624054, 0.1245889812707901, 8.02193546295166, 4.103267669677734, -0.8334710597991943, -42.64929962158203, -47.7121696472168, -60.13654327392578, -0.830078125, -0.335205078125, -0.124755859375, 
232, 44032311, 0.6541045904159546, 0.4875783324241638, -0.5658988356590271, 0.11905129253864288, 8.53036117553711, 5.5079193115234375, -0.6566685438156128, -35.879127502441406, -49.78041076660156, -48.25929641723633, -0.82373046875, -0.337646484375, -0.120849609375, 
233, 44040644, 0.654036283493042, 0.4878860414028168, -0.5667054653167725, 0.11423113942146301, 8.543052673339844, 6.411068916320801, -0.37357762455940247, -35.57270431518555, -40.714271545410156, -40.849769592285156, -0.81982421875, -0.346923828125, -0.117431640625, 
234, 44048977, 0.6545829772949219, 0.48780426383018494, -0.5670678615570068, 0.1095547080039978, 8.662741661071777, 6.867288589477539, -0.2934016287326813, -41.409454345703125, -30.23223114013672, -39.81258010864258, -0.81884765625, -0.343017578125, -0.115478515625, 
235, 44057310, 0.655516505241394, 0.4873071014881134, -0.5672988295555115, 0.10489178448915482, 8.693279266357422, 6.79625129699707, -0.07198096811771393, -47.30204772949219, -25.89952850341797, -41.01185607910156, -0.819091796875, -0.349853515625, -0.112548828125, 
236, 44065643, 0.6563866138458252, 0.4869762361049652, -0.5675133466720581, 0.0996975302696228, 8.657411575317383, 6.725424289703369, -0.15051351487636566, -49.63518524169922, -29.463623046875, -44.02195358276367, -0.814208984375, -0.35302734375, -0.112548828125, 
237, 44073976, 0.6575127840042114, 0.4862598478794098, -0.567765474319458, 0.09418585896492004, 8.438018798828125, 6.73834753036499, -0.17045998573303223, -57.3013801574707, -29.581119537353516, -44.83688735961914, -0.813720703125, -0.355224609375, -0.116455078125, 
238, 44082309, 0.6588348150253296, 0.485159695148468, -0.5681483745574951, 0.08811701089143753, 8.35023021697998, 6.731236934661865, -0.4149709641933441, -66.6539306640625, -32.28457260131836, -45.40092086791992, -0.809814453125, -0.3583984375, -0.114990234375, 
239, 44090642, 0.6599907279014587, 0.48383498191833496, -0.568909227848053, 0.08160018920898438, 8.302469253540039, 6.961539268493652, -0.8281091451644897, -71.45326232910156, -39.964359283447266, -46.06108474731445, -0.812744140625, -0.3623046875, -0.113525390625, 
240, 44098975, 0.6610895395278931, 0.4824003577232361, -0.5697987675666809, 0.07470125705003738, 8.182129859924316, 7.046996593475342, -1.071061611175537, -75.28836059570312, -43.75704574584961, -46.67002487182617, -0.805908203125, -0.36328125, -0.110107421875, 
241, 44107308, 0.6622147560119629, 0.4807512164115906, -0.5707667469978333, 0.067641980946064, 8.169168472290039, 7.087454795837402, -0.9438207149505615, -78.64462280273438, -45.37467956542969, -47.15867233276367, -0.804443359375, -0.36669921875, -0.110107421875, 
242, 44115641, 0.6635140776634216, 0.47894057631492615, -0.571647584438324, 0.05986781418323517, 7.9813313484191895, 7.015880107879639, -1.058531641960144, -86.90238952636719, -47.52397155761719, -51.93691635131836, -0.800537109375, -0.369140625, -0.108154296875, 
243, 44123974, 0.6656352281570435, 0.4771046042442322, -0.571485161781311, 0.052017975598573685, 7.670701503753662, 6.904301643371582, -1.3210532665252686, -92.18912506103516, -32.23971176147461, -61.01280212402344, -0.799072265625, -0.373046875, -0.104248046875, 
244, 44132307, 0.6689913868904114, 0.47551241517066956, -0.5695186257362366, 0.04457876831293106, 7.814497470855713, 7.0955305099487305, -1.2534140348434448, -93.6343994140625, -3.280660390853882, -70.8546142578125, -0.796142578125, -0.3759765625, -0.112548828125, 
245, 44140640, 0.6735458374023438, 0.47389835119247437, -0.5659875273704529, 0.037611983716487885, 8.057690620422363, 7.825502872467041, -1.1212518215179443, -96.82752990722656, 23.24362564086914, -79.16639709472656, -0.789306640625, -0.384033203125, -0.116943359375, 
246, 44148973, 0.6783952713012695, 0.472369909286499, -0.5618564486503601, 0.031048880890011787, 8.298787117004395, 8.678728103637695, -1.115942358970642, -94.68883514404297, 34.038307189941406, -78.2938232421875, -0.783447265625, -0.389404296875, -0.124755859375, 
247, 44157306, 0.6829407811164856, 0.4709073007106781, -0.5578576922416687, 0.025165360420942307, 8.36878776550293, 9.45688247680664, -1.0139644145965576, -86.81074523925781, 34.71162796020508, -72.25674438476562, -0.7763671875, -0.395263671875, -0.133056640625, 
248, 44165639, 0.6873306632041931, 0.46950003504753113, -0.5538526773452759, 0.019843783229589462, 8.233478546142578, 9.63318157196045, -0.8611835837364197, -81.061767578125, 37.325225830078125, -66.6091079711914, -0.76904296875, -0.402587890625, -0.141357421875, 
249, 44173972, 0.6915920376777649, 0.46806931495666504, -0.5498930215835571, 0.015148375183343887, 8.298531532287598, 9.584508895874023, -0.7166097164154053, -75.67342376708984, 39.94464111328125, -60.337623596191406, -0.7626953125, -0.404541015625, -0.150390625, 
250, 44182305, 0.6954926252365112, 0.46637749671936035, -0.5464929938316345, 0.011303124949336052, 8.174018859863281, 9.35509204864502, -0.6669491529464722, -69.54490661621094, 37.44215393066406, -46.4472770690918, -0.757568359375, -0.408203125, -0.15869140625, 
251, 44190638, 0.6989858746528625, 0.46436187624931335, -0.5437960028648376, 0.008551794104278088, 7.774526596069336, 8.980270385742188, -0.7295159101486206, -61.89778518676758, 34.71078109741211, -29.08918571472168, -0.749755859375, -0.41015625, -0.16650390625, 
252, 44198971, 0.7019376754760742, 0.46250787377357483, -0.5415879487991333, 0.007265973370522261, 7.883432865142822, 8.74653148651123, -0.7434237003326416, -46.00471115112305, 35.31413269042969, -12.914787292480469, -0.748779296875, -0.41357421875, -0.17041015625, 
253, 44207304, 0.7042982578277588, 0.46043163537979126, -0.5402894020080566, 0.007378892507404089, 7.932868957519531, 8.852410316467285, -0.42917585372924805, -34.035770416259766, 31.03050994873047, 7.936982154846191, -0.74755859375, -0.4140625, -0.181640625, 
254, 44215637, 0.7063984274864197, 0.45732763409614563, -0.5401787757873535, 0.00774481613188982, 7.596190452575684, 9.009995460510254, -0.24352572858333588, -40.60747146606445, 19.316368103027344, 25.719173431396484, -0.74609375, -0.4072265625, -0.1826171875, 
255, 44223970, 0.7082340717315674, 0.45380762219429016, -0.5407386422157288, 0.00806496199220419, 7.85051965713501, 8.96447467803955, 0.01752554066479206, -43.36547088623047, 10.574209213256836, 32.427127838134766, -0.74560546875, -0.4033203125, -0.1884765625, 
256, 44232303, 0.7096199989318848, 0.4498857259750366, -0.5421910881996155, 0.008442820981144905, 8.121030807495117, 8.776615142822266, 0.8054820895195007, -44.17363357543945, -1.0391730070114136, 41.781044006347656, -0.74609375, -0.39892578125, -0.19091796875, 
257, 44240636, 0.7106853127479553, 0.4446517527103424, -0.5451078414916992, 0.008282745257019997, 8.228271484375, 8.894091606140137, 1.485081672668457, -59.14506912231445, -20.91230583190918, 55.24620056152344, -0.747802734375, -0.38916015625, -0.19189453125, 
258, 44248969, 0.711555540561676, 0.4377261996269226, -0.5495737791061401, 0.0072915139608085155, 8.368978500366211, 9.022464752197266, 1.3129202127456665, -80.92198181152344, -42.386898040771484, 69.46334075927734, -0.756591796875, -0.378662109375, -0.1923828125, 
259, 44257302, 0.7118836045265198, 0.4294261336326599, -0.5556761622428894, 0.0062485020607709885, 8.243019104003906, 9.070857048034668, 0.4682967960834503, -91.63610076904297, -62.68988037109375, 89.13064575195312, -0.760009765625, -0.366455078125, -0.185546875, 
260, 44265635, 0.7118390202522278, 0.42061421275138855, -0.5624370574951172, 0.005796488840132952, 7.758627891540527, 8.644307136535645, -0.06466208398342133, -90.01592254638672, -68.43132781982422, 102.86724853515625, -0.768310546875, -0.354248046875, -0.18212890625, 
261, 44273968, 0.7114611864089966, 0.41181161999702454, -0.5693817138671875, 0.006237763445824385, 7.634709358215332, 8.306381225585938, -0.0865626186132431, -81.0783920288086, -67.65985870361328, 112.54061889648438, -0.779052734375, -0.337158203125, -0.17919921875, 
262, 44282301, 0.7108047604560852, 0.4030027687549591, -0.5764445066452026, 0.007580955978482962, 7.726394176483154, 8.210951805114746, 0.06703890860080719, -72.53278350830078, -65.86965942382812, 122.19559478759766, -0.788818359375, -0.319580078125, -0.17236328125, 
263, 44290634, 0.7098610401153564, 0.39398592710494995, -0.5837557315826416, 0.010102339088916779, 8.10885238647461, 8.438727378845215, -0.20287932455539703, -63.619197845458984, -64.06891632080078, 136.59666442871094, -0.793212890625, -0.299560546875, -0.16943359375, 
264, 44298967, 0.7087908387184143, 0.38374802470207214, -0.5917229056358337, 0.014739849604666233, 8.5054292678833, 8.92887020111084, -0.6228609681129456, -57.99720764160156, -59.81032180786133, 170.80096435546875, -0.806884765625, -0.28173828125, -0.16015625, 
265, 44307300, 0.7083926796913147, 0.3702309727668762, -0.6004716753959656, 0.02329873852431774, 8.994134902954102, 9.390741348266602, -1.3140133619308472, -61.72609329223633, -40.63905715942383, 239.5696563720703, -0.811279296875, -0.25, -0.15673828125, 
266, 44315633, 0.7084633111953735, 0.35432183742523193, -0.6091919541358948, 0.037697721272706985, 8.659793853759766, 8.407498359680176, -1.7749015092849731, -39.21413803100586, -5.950180530548096, 316.0631103515625, -0.8212890625, -0.21142578125, -0.15625, 
267, 44323966, 0.7084380984306335, 0.3383881449699402, -0.6169427633285522, 0.05468778312206268, 8.118581771850586, 7.433626174926758, -0.19349896907806396, -16.76873779296875, 15.320809364318848, 336.8153381347656, -0.833740234375, -0.169921875, -0.1533203125, 
268, 44332299, 0.7075611352920532, 0.3225368559360504, -0.6246280670166016, 0.07188398391008377, 8.408891677856445, 6.616125583648682, 0.3563641905784607, -10.211095809936523, 9.639777183532715, 338.48980712890625, -0.83935546875, -0.126953125, -0.1611328125, 
269, 44340632, 0.7062233686447144, 0.30619868636131287, -0.6320610642433167, 0.08938679844141006, 8.613539695739746, 6.211380958557129, 0.28474369645118713, -10.011582374572754, 9.96225643157959, 344.9534606933594, -0.841552734375, -0.082763671875, -0.1591796875, 
270, 44348965, 0.7044796943664551, 0.28966352343559265, -0.6390635371208191, 0.10677798837423325, 8.782349586486816, 5.715332508087158, 0.3602827787399292, -10.665909767150879, 10.403656959533691, 344.3066101074219, -0.84326171875, -0.035888671875, -0.16162109375, 
271, 44357298, 0.7010707855224609, 0.2738093137741089, -0.6467346549034119, 0.12354204803705215, 8.873220443725586, 5.167675018310547, 0.5587013959884644, -3.914632558822632, -14.27778434753418, 337.3326721191406, -0.846435546875, 0.009765625, -0.161376953125, 
272, 44365631, 0.6955733895301819, 0.2596201002597809, -0.6552568674087524, 0.13933280110359192, 8.728880882263184, 4.479250431060791, 0.4189412593841553, 9.887304306030273, -47.486671447753906, 319.91204833984375, -0.843994140625, 0.05078125, -0.156494140625, 
273, 44373964, 0.6891416907310486, 0.24704980850219727, -0.6635485887527466, 0.1541227102279663, 8.73870849609375, 3.77046799659729, 0.16169854998588562, 20.13095474243164, -60.52654266357422, 296.91937255859375, -0.84619140625, 0.089599609375, -0.146240234375, 
274, 44382297, 0.6824830174446106, 0.2362918257713318, -0.6709389686584473, 0.16800156235694885, 8.628915786743164, 3.1297261714935303, 0.052036963403224945, 31.675495147705078, -60.840335845947266, 268.9549255371094, -0.84326171875, 0.1279296875, -0.138916015625, 
275, 44390630, 0.6758957505226135, 0.22759583592414856, -0.677406907081604, 0.1802360564470291, 8.576398849487305, 2.7204010486602783, 0.04883015155792236, 37.67591857910156, -62.17695617675781, 232.8075714111328, -0.840087890625, 0.157470703125, -0.131103515625, 
276, 44398963, 0.6691725254058838, 0.22053523361682892, -0.6834222674369812, 0.19106654822826385, 9.02319622039795, 2.505312919616699, -0.08503229916095734, 41.42322540283203, -67.13628387451172, 201.96112060546875, -0.839111328125, 0.181396484375, -0.122314453125, 
277, 44407296, 0.6626904606819153, 0.21386758983135223, -0.6888273358345032, 0.20154134929180145, 9.49988079071045, 2.695819139480591, -0.15764518082141876, 42.54542541503906, -61.46179962158203, 192.8948211669922, -0.835205078125, 0.203125, -0.114501953125, 
278, 44415629, 0.6555852890014648, 0.20708495378494263, -0.6945356726646423, 0.2120000272989273, 9.746665000915527, 2.824683904647827, -0.26293304562568665, 42.35741424560547, -69.7620620727539, 196.0740203857422, -0.833740234375, 0.22802734375, -0.106201171875, 
279, 44423962, 0.6474769711494446, 0.20074930787086487, -0.7006077766418457, 0.2227603793144226, 9.811344146728516, 2.8198256492614746, -0.42264506220817566, 50.969688415527344, -83.47132110595703, 200.78445434570312, -0.830322265625, 0.251708984375, -0.095947265625, 
280, 44432295, 0.6392606496810913, 0.19346053898334503, -0.7066900134086609, 0.23347003757953644, 9.234375, 2.201012372970581, 0.2651991844177246, 42.356197357177734, -81.41817474365234, 207.57749938964844, -0.825439453125, 0.27587890625, -0.086181640625, 
281, 44440628, 0.6322603821754456, 0.18573002517223358, -0.7120229005813599, 0.24243514239788055, 8.219161987304688, 2.1644082069396973, -0.03145262598991394, 20.64825439453125, -66.43243408203125, 192.32412719726562, -0.822509765625, 0.302978515625, -0.074951171875, 
282, 44448961, 0.6263543367385864, 0.17791962623596191, -0.716134786605835, 0.2513485848903656, 7.6840949058532715, 2.779038667678833, -0.8640325665473938, 20.759504318237305, -44.769100189208984, 184.2024688720703, -0.81640625, 0.324462890625, -0.071044921875, 
283, 44457294, 0.6225919723510742, 0.1690918207168579, -0.7178840041160583, 0.2615910470485687, 7.464033603668213, 1.9617425203323364, -2.023202657699585, 27.9920597076416, 3.381897449493408, 193.10617065429688, -0.80859375, 0.34765625, -0.068115234375, 
284, 44465627, 0.6218467950820923, 0.15914340317249298, -0.716719388961792, 0.2725682556629181, 6.953258514404297, 0.41480013728141785, -1.0498687028884888, 29.131925582885742, 63.93830490112305, 192.206787109375, -0.796630859375, 0.367919921875, -0.075439453125, 
285, 44473960, 0.6222302317619324, 0.14902672171592712, -0.7149309515953064, 0.28194761276245117, 6.815211772918701, -0.2299083024263382, -0.43493008613586426, 11.804278373718262, 77.52029418945312, 174.79331970214844, -0.78466796875, 0.38916015625, -0.0859375, 
286, 44482293, 0.6217571496963501, 0.14003661274909973, -0.7134523391723633, 0.2911938428878784, 6.89189338684082, -0.47473686933517456, -0.472324401140213, 20.697128295898438, 61.815303802490234, 166.34471130371094, -0.773193359375, 0.410400390625, -0.09375, 
287, 44490626, 0.6202442049980164, 0.1322074979543686, -0.712577223777771, 0.30008718371391296, 6.9343109130859375, -0.5456953048706055, -0.6338077187538147, 26.74181365966797, 41.12390899658203, 157.33753967285156, -0.76318359375, 0.427734375, -0.10009765625, 
288, 44498959, 0.6178808212280273, 0.12536779046058655, -0.7121205925941467, 0.30885401368141174, 7.019590854644775, -0.8383813500404358, -0.7805567383766174, 33.76547622680664, 24.909191131591797, 150.75750732421875, -0.75439453125, 0.447265625, -0.105712890625, 
289, 44507292, 0.6143566370010376, 0.11961395293474197, -0.7122814655303955, 0.317669153213501, 7.126888751983643, -1.0374541282653809, -0.3651997148990631, 42.83827209472656, 3.7644097805023193, 146.6116943359375, -0.741455078125, 0.462158203125, -0.109130859375, 
290, 44515625, 0.6099398732185364, 0.11461517214775085, -0.7129583358764648, 0.32638493180274963, 7.2170844078063965, -1.2654706239700317, -0.33734330534935, 47.46243667602539, -12.798616409301758, 143.04139709472656, -0.735595703125, 0.47802734375, -0.109619140625, 
291, 44523958, 0.6052420139312744, 0.1099465936422348, -0.7137379050254822, 0.33492130041122437, 7.276631832122803, -1.6630243062973022, -0.5598081350326538, 48.45191955566406, -18.178802490234375, 139.8253173828125, -0.7265625, 0.493896484375, -0.109619140625, 
292, 44532291, 0.6006273031234741, 0.105632483959198, -0.7142838835716248, 0.34334710240364075, 7.162498950958252, -2.209625482559204, -0.5402389764785767, 51.27082061767578, -17.22071647644043, 134.58648681640625, -0.7177734375, 0.50390625, -0.108154296875, 
293, 44540624, 0.5960397720336914, 0.10190790891647339, -0.7147010564804077, 0.351502388715744, 7.4921464920043945, -2.4572904109954834, -0.6211504340171814, 54.04624557495117, -19.059133529663086, 126.37408447265625, -0.708984375, 0.5185546875, -0.10986328125, 
294, 44548957, 0.5914533138275146, 0.09856203943490982, -0.7150168418884277, 0.35947126150131226, 7.534607410430908, -2.5427818298339844, -0.8713170289993286, 55.810813903808594, -20.316970825195312, 120.84883117675781, -0.700439453125, 0.532470703125, -0.1123046875, 
295, 44557290, 0.5875181555747986, 0.09519179165363312, -0.7147892713546753, 0.36720216274261475, 7.789469242095947, -2.9560842514038086, -0.7325999140739441, 55.07340621948242, -9.681526184082031, 115.36666107177734, -0.692626953125, 0.54296875, -0.11474609375, 
296, 44565623, 0.584544837474823, 0.09152442961931229, -0.7139598727226257, 0.3744223415851593, 8.024975776672363, -3.3822665214538574, -0.5348168611526489, 49.4365119934082, 5.4541449546813965, 108.34674072265625, -0.68212890625, 0.5576171875, -0.11865234375, 
297, 44573956, 0.5821365714073181, 0.08813780546188354, -0.712756335735321, 0.38121822476387024, 8.292560577392578, -3.8732552528381348, -0.20975573360919952, 48.73748779296875, 12.062500953674316, 99.07989501953125, -0.6748046875, 0.563720703125, -0.12109375, 
298, 44582289, 0.5793934464454651, 0.08568038791418076, -0.7117168307304382, 0.38784196972846985, 8.732271194458008, -4.0333099365234375, 0.1404140591621399, 54.040069580078125, 2.3539326190948486, 90.2679214477539, -0.669189453125, 0.573486328125, -0.125244140625, 
299, 44590622, 0.5760853886604309, 0.08400388807058334, -0.7111818194389343, 0.3940678834915161, 8.88577651977539, -4.0901713371276855, -0.19671358168125153, 54.33561325073242, -11.706013679504395, 83.9671401977539, -0.663818359375, 0.57861328125, -0.129150390625, 
300, 44598955, 0.5725744366645813, 0.08293872326612473, -0.710754930973053, 0.40013402700424194, 8.768455505371094, -4.393672943115234, -0.6413480043411255, 57.270057678222656, -18.166690826416016, 77.0411148071289, -0.659423828125, 0.5849609375, -0.130615234375, 
301, 44607288, 0.5690829753875732, 0.08322617411613464, -0.7102588415145874, 0.40589475631713867, 8.940939903259277, -4.584456920623779, -0.6877406239509583, 65.26020812988281, -24.234806060791016, 68.11344909667969, -0.652587890625, 0.59228515625, -0.134521484375, 
302, 44615621, 0.5641616582870483, 0.08474725484848022, -0.7104877233505249, 0.41200345754623413, 9.224461555480957, -4.50027322769165, -0.41858363151550293, 75.93526458740234, -51.349605560302734, 60.717411041259766, -0.652099609375, 0.591796875, -0.132080078125, 
303, 44623954, 0.5574711561203003, 0.08837354183197021, -0.7119508981704712, 0.4177824854850769, 9.386408805847168, -4.518385410308838, -0.3529545068740845, 84.23548126220703, -89.43772888183594, 55.085121154785156, -0.6494140625, 0.599365234375, -0.133056640625, 
304, 44632287, 0.550037682056427, 0.09273624420166016, -0.7137222290039062, 0.42362654209136963, 9.424914360046387, -4.876826763153076, -0.18965362012386322, 89.5228042602539, -104.30765533447266, 46.99424362182617, -0.6484375, 0.603759765625, -0.129638671875, 
305, 44640620, 0.5432393550872803, 0.09735552221536636, -0.7150855660438538, 0.42902877926826477, 9.462446212768555, -5.186155319213867, 0.17785917222499847, 88.77660369873047, -96.68257141113281, 38.67525100708008, -0.651611328125, 0.601318359375, -0.128662109375, 
306, 44648953, 0.5374312400817871, 0.10135895758867264, -0.715947687625885, 0.43395063281059265, 9.340253829956055, -5.583611965179443, 0.4752122163772583, 80.99288940429688, -80.5718765258789, 32.87628936767578, -0.654052734375, 0.602294921875, -0.121826171875, 
307, 44657286, 0.5326933264732361, 0.10474160313606262, -0.7165614366531372, 0.43795743584632874, 8.919574737548828, -6.049219608306885, 0.5128723978996277, 67.43372344970703, -65.60894012451172, 26.248306274414062, -0.653076171875, 0.599853515625, -0.121826171875, 
308, 44665619, 0.5297942161560059, 0.10710743069648743, -0.7163906097412109, 0.44116947054862976, 8.476466178894043, -6.560722827911377, 0.249299556016922, 54.179019927978516, -36.92411804199219, 17.48971176147461, -0.653564453125, 0.602294921875, -0.120849609375, 
309, 44673952, 0.5293297171592712, 0.10855115205049515, -0.715199887752533, 0.4433012306690216, 7.915953159332275, -7.073241233825684, 0.2077552080154419, 39.449859619140625, -1.3983598947525024, 2.9988036155700684, -0.657470703125, 0.603759765625, -0.121826171875, 
310, 44682285, 0.5302150845527649, 0.10997490584850311, -0.7134674787521362, 0.4446818232536316, 7.775814056396484, -7.4829936027526855, 0.19777613878250122, 33.17240905761719, 14.713921546936035, -11.877565383911133, -0.656494140625, 0.60302734375, -0.125244140625, 
311, 44690618, 0.5311195850372314, 0.11245030164718628, -0.711814284324646, 0.44563165307044983, 7.68325138092041, -7.822503566741943, 0.2550557255744934, 36.12541961669922, 7.370828628540039, -24.608047485351562, -0.657958984375, 0.59765625, -0.130126953125, 
312, 44698951, 0.5310239791870117, 0.1167510524392128, -0.7108853459358215, 0.44612225890159607, 7.702167510986328, -7.9565324783325195, 0.045010022819042206, 42.04689025878906, -19.732837677001953, -39.305145263671875, -0.664306640625, 0.59423828125, -0.129150390625, 
313, 44707284, 0.5291255116462708, 0.12384866923093796, -0.7108220458030701, 0.44656455516815186, 7.584868907928467, -7.927148818969727, -0.5214781165122986, 59.5911865234375, -60.84159851074219, -54.133995056152344, -0.670166015625, 0.588134765625, -0.130126953125, 
314, 44715617, 0.5257119536399841, 0.13404715061187744, -0.7111255526542664, 0.44716787338256836, 7.351724624633789, -8.00400447845459, -0.9467642307281494, 84.0480728149414, -97.16436004638672, -73.7596206665039, -0.68017578125, 0.574951171875, -0.12451171875, 
315, 44723950, 0.5210118889808655, 0.147493377327919, -0.7115311622619629, 0.4477898180484772, 7.9526824951171875, -7.791901111602783, -0.25019633769989014, 109.46759796142578, -130.36402893066406, -97.018310546875, -0.69384765625, 0.56201171875, -0.11962890625, 
316, 44732283, 0.5151585936546326, 0.1627569943666458, -0.712232232093811, 0.4481595754623413, 8.632043838500977, -7.546398162841797, 0.785893976688385, 120.52651977539062, -155.52818298339844, -109.17828369140625, -0.708740234375, 0.545654296875, -0.11279296875, 
317, 44740616, 0.5095148682594299, 0.17830544710159302, -0.7129205465316772, 0.44760066270828247, 8.629592895507812, -7.339261054992676, 0.9653626084327698, 113.0849838256836, -157.15530395507812, -119.65463256835938, -0.7255859375, 0.53125, -0.102294921875, 
318, 44748949, 0.506076455116272, 0.19372263550758362, -0.7125204801559448, 0.4457276463508606, 8.07481861114502, -7.494110107421875, 0.7619150876998901, 100.54703521728516, -130.3844757080078, -144.0306396484375, -0.739501953125, 0.50732421875, -0.094970703125, 
319, 44757282, 0.5048519372940063, 0.20898005366325378, -0.7112242579460144, 0.4422803223133087, 8.343987464904785, -7.1453938484191895, 1.1794112920761108, 83.61360931396484, -105.6487808227539, -169.28753662109375, -0.75830078125, 0.485595703125, -0.087158203125, 
320, 44765615, 0.5046234130859375, 0.2232266068458557, -0.7092896699905396, 0.43867215514183044, 8.704913139343262, -6.627669811248779, 0.3755144774913788, 76.03105926513672, -85.81024932861328, -168.5012969970703, -0.772216796875, 0.46142578125, -0.08251953125, 
321, 44773948, 0.5061634182929993, 0.2358129769563675, -0.706254780292511, 0.4351956844329834, 8.617565155029297, -6.499528408050537, -0.12765929102897644, 67.00591278076172, -50.49961471557617, -165.3394317626953, -0.785400390625, 0.437255859375, -0.07763671875, 
322, 44782281, 0.5084855556488037, 0.24720902740955353, -0.7025790214538574, 0.43210336565971375, 9.070001602172852, -5.812033653259277, -0.26442354917526245, 63.74871063232422, -30.07663917541504, -157.96266174316406, -0.79638671875, 0.41650390625, -0.076171875, 
323, 44790614, 0.5104163885116577, 0.25820162892341614, -0.6990717053413391, 0.42907580733299255, 8.8192777633667, -5.385524272918701, -0.3127184808254242, 61.873748779296875, -32.44221878051758, -150.64308166503906, -0.80859375, 0.395751953125, -0.077392578125, 
324, 44798947, 0.5122057795524597, 0.26941871643066406, -0.6957358121871948, 0.4254536032676697, 8.931646347045898, -5.599456787109375, -0.29026463627815247, 57.23125076293945, -38.416439056396484, -155.602294921875, -0.818115234375, 0.373046875, -0.074951171875, 
325, 44807280, 0.5131044983863831, 0.28136709332466125, -0.6924352645874023, 0.4220072627067566, 9.06924057006836, -5.475775241851807, -0.4012160301208496, 67.13488006591797, -50.899559020996094, -155.9798126220703, -0.83154296875, 0.349853515625, -0.072021484375, 
326, 44815613, 0.5137808918952942, 0.2942344546318054, -0.6888846158981323, 0.4182029366493225, 8.581401824951172, -5.762136459350586, -0.5197374224662781, 72.54747009277344, -57.88508987426758, -166.97174072265625, -0.841064453125, 0.3271484375, -0.065185546875, 
327, 44823946, 0.5137094855308533, 0.3088085353374481, -0.6852310299873352, 0.4137614071369171, 8.846418380737305, -5.159575462341309, -0.187434583902359, 82.15514373779297, -76.75878143310547, -183.82452392578125, -0.8544921875, 0.300048828125, -0.06005859375, 
328, 44832279, 0.5121499300003052, 0.3244604468345642, -0.6822697520256042, 0.40857812762260437, 8.689133644104004, -5.007369041442871, -0.28405332565307617, 85.19354248046875, -104.83519744873047, -187.75149536132812, -0.862548828125, 0.26953125, -0.05322265625, 
329, 44840612, 0.5096707940101624, 0.34167686104774475, -0.6792232394218445, 0.40267667174339294, 8.529754638671875, -5.139854907989502, -0.5645633339881897, 93.97721099853516, -125.19706726074219, -203.07127380371094, -0.876953125, 0.240478515625, -0.036376953125, 
330, 44848945, 0.5064480900764465, 0.3606596887111664, -0.6757610440254211, 0.395956814289093, 9.161203384399414, -4.285351276397705, -0.2821756601333618, 104.59110260009766, -142.5219268798828, -222.78016662597656, -0.887451171875, 0.208984375, -0.022216796875, 
331, 44857278, 0.5034942030906677, 0.3799106478691101, -0.6716693043708801, 0.38861551880836487, 9.321621894836426, -3.3560643196105957, -0.25313204526901245, 102.53622436523438, -141.24249267578125, -235.6462860107422, -0.899658203125, 0.172119140625, -0.0029296875, 
332, 44865611, 0.5021694898605347, 0.39817941188812256, -0.6669758558273315, 0.38002949953079224, 9.27170181274414, -2.966628313064575, -0.040066324174404144, 79.18260955810547, -122.22016143798828, -245.5831756591797, -0.906982421875, 0.135009765625, 0.01171875, 
333, 44873944, 0.502285897731781, 0.41477853059768677, -0.6617946624755859, 0.37107357382774353, 9.066216468811035, -3.114252805709839, -0.20329056680202484, 58.66188049316406, -100.25321960449219, -244.7540740966797, -0.916015625, 0.10205078125, 0.023681640625, 
334, 44882277, 0.5040173530578613, 0.4299274682998657, -0.6560431718826294, 0.3615751564502716, 8.813518524169922, -3.0965256690979004, -0.32402437925338745, 37.66328811645508, -75.98643493652344, -245.0696258544922, -0.917724609375, 0.060791015625, 0.039306640625, 
335, 44890610, 0.5066483020782471, 0.44351089000701904, -0.6499488949775696, 0.3523808419704437, 8.945846557617188, -2.7273592948913574, -1.3338229656219482, 25.684261322021484, -57.754844665527344, -237.56072998046875, -0.925048828125, 0.026611328125, 0.047607421875, 
336, 44898943, 0.5078225135803223, 0.4570026993751526, -0.6443957090377808, 0.3435392379760742, 8.73268985748291, -1.8822498321533203, -1.6788524389266968, 34.71883010864258, -70.10938262939453, -221.70269775390625, -0.92431640625, -0.009765625, 0.05810546875, 
337, 44907276, 0.5076191425323486, 0.469465047121048, -0.6404184103012085, 0.33435022830963135, 8.786300659179688, -0.9952870607376099, -1.9409630298614502, 25.566967010498047, -91.53398895263672, -199.72665405273438, -0.922607421875, -0.0419921875, 0.06982421875, 
338, 44915609, 0.5080524682998657, 0.4797951281070709, -0.6364886164665222, 0.32643842697143555, 8.695194244384766, -0.717388927936554, -2.6986429691314697, 17.701351165771484, -67.31713104248047, -173.52102661132812, -0.9208984375, -0.068359375, 0.0859375, 
339, 44923942, 0.5098804235458374, 0.4884103834629059, -0.6317943930625916, 0.3198643922805786, 8.284111976623535, -1.0330703258514404, -2.226557493209839, 11.621752738952637, -33.639034271240234, -161.00294494628906, -0.924072265625, -0.0927734375, 0.08837890625, 
340, 44932275, 0.511701226234436, 0.49662545323371887, -0.6267942190170288, 0.3140925467014313, 8.634279251098633, -0.8733915686607361, -2.3022301197052, 17.219295501708984, -24.012632369995117, -153.39027404785156, -0.91943359375, -0.11376953125, 0.093994140625, 
341, 44940608, 0.5132095813751221, 0.5047233700752258, -0.6218873262405396, 0.30842623114585876, 8.180959701538086, -0.7895806431770325, -1.947513222694397, 19.011598587036133, -26.400243759155273, -150.0478973388672, -0.91845703125, -0.1376953125, 0.096923828125, 
342, 44948941, 0.5139163732528687, 0.5129921436309814, -0.6176490783691406, 0.30205777287483215, 8.612789154052734, -0.37618958950042725, -2.190063238143921, 16.962718963623047, -43.30881118774414, -148.0279083251953, -0.913818359375, -0.16162109375, 0.101318359375, 
343, 44957274, 0.5137521028518677, 0.5214208960533142, -0.613620400428772, 0.29605618119239807, 8.443366050720215, -0.17295807600021362, -2.4159295558929443, 26.46862030029297, -50.46705627441406, -142.02200317382812, -0.91162109375, -0.18310546875, 0.111572265625, 
344, 44965607, 0.5141804218292236, 0.5292935967445374, -0.6089164018630981, 0.29101237654685974, 8.199734687805176, -0.22689136862754822, -2.148827314376831, 29.139659881591797, -31.359901428222656, -137.49514770507812, -0.90966796875, -0.2021484375, 0.116455078125, 
345, 44973940, 0.515648365020752, 0.5362871289253235, -0.6035130620002747, 0.2868361473083496, 8.005514144897461, -0.3977430760860443, -1.476080298423767, 25.39860725402832, -8.141669273376465, -133.69017028808594, -0.904052734375, -0.2236328125, 0.122314453125, 
346, 44982273, 0.5184834003448486, 0.5421280860900879, -0.5977754592895508, 0.2827310264110565, 7.569558620452881, -0.7532225847244263, -1.2676433324813843, 9.072969436645508, 10.90943717956543, -131.03518676757812, -0.900146484375, -0.2392578125, 0.120849609375, 
347, 44990606, 0.5224780440330505, 0.5470739603042603, -0.5918111801147461, 0.2783641517162323, 7.397727012634277, -1.0856000185012817, -1.535219669342041, -7.229387283325195, 23.461807250976562, -131.95852661132812, -0.89697265625, -0.26171875, 0.121337890625, 
348, 44998939, 0.5267305970191956, 0.5521576404571533, -0.5854800343513489, 0.27366113662719727, 7.091741561889648, -1.1934396028518677, -1.9342153072357178, -9.505085945129395, 25.265302658081055, -139.0279541015625, -0.8896484375, -0.2841796875, 0.116455078125, 
349, 45007272, 0.5308735370635986, 0.5576784610748291, -0.5787530541419983, 0.268724650144577, 7.199739456176758, -0.27133119106292725, -2.2568812370300293, -5.897151947021484, 23.763750076293945, -146.95584106445312, -0.8876953125, -0.30224609375, 0.111572265625, 
350, 45015605, 0.5341494083404541, 0.5638024806976318, -0.5725263357162476, 0.26272571086883545, 7.887259483337402, 1.1591622829437256, -2.1575875282287598, -5.147772789001465, 2.901883125305176, -152.34996032714844, -0.8779296875, -0.32275390625, 0.110107421875, 
351, 45023938, 0.5356177687644958, 0.5703983902931213, -0.5680890083312988, 0.2550182044506073, 8.522336959838867, 2.8798370361328125, -2.1751210689544678, -7.583225250244141, -39.48357391357422, -148.32908630371094, -0.869384765625, -0.3466796875, 0.112548828125, 
352, 45032271, 0.5367449522018433, 0.5760496854782104, -0.5649038553237915, 0.24689126014709473, 8.832206726074219, 3.2098045349121094, -1.8936890363693237, -19.53291130065918, -51.2901496887207, -132.90213012695312, -0.860595703125, -0.364990234375, 0.118408203125, 
353, 45040604, 0.5391594767570496, 0.5793490409851074, -0.5620608329772949, 0.24031126499176025, 9.56238079071045, 3.1042115688323975, -0.8646292090415955, -36.2356071472168, -23.83205223083496, -105.39293670654297, -0.85693359375, -0.379638671875, 0.121337890625, 
354, 45048937, 0.5431305170059204, 0.5801460146903992, -0.5595781207084656, 0.23518550395965576, 9.945012092590332, 2.7372286319732666, 0.5875176191329956, -57.1397705078125, 5.638955593109131, -77.02296447753906, -0.85400390625, -0.389404296875, 0.119873046875, 
355, 45057270, 0.5468950271606445, 0.579362154006958, -0.5590265989303589, 0.22964048385620117, 10.252218246459961, 2.8057379722595215, 1.577343225479126, -76.51529693603516, -12.105823516845703, -58.645870208740234, -0.84521484375, -0.400146484375, 0.115966796875, 
356, 45065603, 0.5503561496734619, 0.5775120854377747, -0.5607072114944458, 0.22180135548114777, 9.907344818115234, 3.1424882411956787, 1.1238269805908203, -107.05693817138672, -42.63689041137695, -42.23218536376953, -0.84423828125, -0.406494140625, 0.114990234375, 
357, 45073936, 0.5543673038482666, 0.5737578868865967, -0.5640966296195984, 0.2127770334482193, 8.72292423248291, 2.782839775085449, -0.2770032584667206, -140.08058166503906, -55.59238815307617, -25.733718872070312, -0.84130859375, -0.411865234375, 0.116455078125, 
358, 45082269, 0.5591910481452942, 0.5687371492385864, -0.5679129958152771, 0.20326972007751465, 7.316431522369385, 2.2401278018951416, -1.8830480575561523, -161.2447052001953, -51.99028396606445, -17.502601623535156, -0.8359375, -0.412109375, 0.113525390625, 
359, 45090602, 0.5646117925643921, 0.5630488991737366, -0.5714433193206787, 0.19401584565639496, 6.642364501953125, 1.7903043031692505, -3.361428737640381, -167.4207000732422, -45.680809020996094, -21.362333297729492, -0.84033203125, -0.412841796875, 0.108154296875, 
360, 45098935, 0.5694445967674255, 0.5584664344787598, -0.5742775797843933, 0.18453586101531982, 6.614699363708496, 2.1587281227111816, -4.327642917633057, -155.04652404785156, -45.198795318603516, -28.516361236572266, -0.837890625, -0.418701171875, 0.105712890625, 
361, 45107268, 0.5732194781303406, 0.5543714761734009, -0.577294111251831, 0.17556563019752502, 6.490434169769287, 3.147988796234131, -4.775417327880859, -139.51768493652344, -52.3890266418457, -24.459577560424805, -0.83544921875, -0.415283203125, 0.103271484375, 
362, 45115601, 0.5764253735542297, 0.5507727861404419, -0.5799615979194641, 0.16741515696048737, 7.033036708831787, 3.9955201148986816, -4.279456615447998, -123.93079376220703, -49.01944351196289, -23.06888771057129, -0.83349609375, -0.422607421875, 0.100830078125, 
363, 45123934, 0.5793431401252747, 0.5477752089500427, -0.5819519758224487, 0.16011202335357666, 7.589901924133301, 4.806667327880859, -2.9017891883850098, -108.6534652709961, -41.05826187133789, -25.96148109436035, -0.83154296875, -0.42529296875, 0.103759765625, 
364, 45132267, 0.5826016664505005, 0.5447181463241577, -0.5834664702415466, 0.15305061638355255, 8.067484855651855, 5.78797721862793, -1.9077626466751099, -108.72662353515625, -32.446197509765625, -27.54390525817871, -0.8291015625, -0.42626953125, 0.097900390625, 
365, 45140600, 0.5864119529724121, 0.5409050583839417, -0.5848924517631531, 0.14643718302249908, 8.298372268676758, 6.148367881774902, -1.8327441215515137, -115.10453796386719, -22.968088150024414, -21.495197296142578, -0.827880859375, -0.432373046875, 0.091552734375, 
366, 45148933, 0.5904257297515869, 0.5369481444358826, -0.5859606862068176, 0.14047986268997192, 8.081538200378418, 6.03626823425293, -1.9795150756835938, -111.81050872802734, -12.673018455505371, -16.335844039916992, -0.828857421875, -0.429443359375, 0.089111328125, 
367, 45157266, 0.5944929718971252, 0.532848060131073, -0.5868281126022339, 0.13521745800971985, 7.774829387664795, 6.108551025390625, -2.270308494567871, -107.3003921508789, -5.90693473815918, -13.165494918823242, -0.823486328125, -0.43359375, 0.084716796875, 
368, 45165599, 0.5986834764480591, 0.5288782715797424, -0.5871753096580505, 0.1307326704263687, 7.8018927574157715, 5.817182540893555, -2.421266794204712, -99.9716796875, 5.500462532043457, -9.866894721984863, -0.822998046875, -0.43212890625, 0.075927734375, 
369, 45173932, 0.6026412844657898, 0.525157630443573, -0.5872402787208557, 0.1272083967924118, 7.945878982543945, 5.441429138183594, -1.9301520586013794, -87.81935119628906, 11.611743927001953, -8.11549186706543, -0.8193359375, -0.4296875, 0.068359375, 
370, 45182265, 0.605846107006073, 0.5216445922851562, -0.587857723236084, 0.12353494763374329, 7.930373191833496, 5.561015605926514, -1.6868032217025757, -82.97439575195312, 0.38238444924354553, -3.213095188140869, -0.8193359375, -0.431640625, 0.06494140625, 
371, 45190598, 0.6083667278289795, 0.5178700685501099, -0.5893252491950989, 0.11998546868562698, 7.929279327392578, 5.895275115966797, -2.010662317276001, -80.30755615234375, -12.761189460754395, 1.714665174484253, -0.82275390625, -0.427978515625, 0.05859375, 
372, 45198931, 0.6105042695999146, 0.5145658850669861, -0.590805172920227, 0.1160004734992981, 7.814231872558594, 5.794312477111816, -2.0234434604644775, -77.5714111328125, -17.983034133911133, 0.45525720715522766, -0.82177734375, -0.430419921875, 0.05810546875, 
373, 45207264, 0.6122524738311768, 0.5114320516586304, -0.5924522280693054, 0.11218079924583435, 7.981082439422607, 6.159663200378418, -1.7239806652069092, -71.937255859375, -23.24667739868164, -2.3670494556427, -0.8173828125, -0.429931640625, 0.05419921875, 
374, 45215597, 0.6139806509017944, 0.508289635181427, -0.5941185355186462, 0.1081327274441719, 7.9266228675842285, 6.648255825042725, -1.56783127784729, -74.1263427734375, -23.573516845703125, 0.566500186920166, -0.82080078125, -0.428955078125, 0.0517578125, 
375, 45223930, 0.6161237955093384, 0.5042756795883179, -0.5959507822990417, 0.10459671169519424, 8.02978515625, 6.748222351074219, -2.0869593620300293, -80.18279266357422, -17.736888885498047, 9.616730690002441, -0.817626953125, -0.4228515625, 0.05126953125, 
376, 45232263, 0.6181120872497559, 0.5003249645233154, -0.5977190136909485, 0.10170930624008179, 7.935295104980469, 6.820106506347656, -2.3957629203796387, -73.42708587646484, -13.0311279296875, 17.30061912536621, -0.817138671875, -0.423095703125, 0.04931640625, 
377, 45240596, 0.6195017695426941, 0.4967344403266907, -0.5996237397193909, 0.09961947053670883, 8.151713371276855, 6.901737213134766, -2.1802985668182373, -59.80582809448242, -14.375967025756836, 22.22943687438965, -0.816650390625, -0.419921875, 0.04541015625, 
378, 45248929, 0.6204124093055725, 0.4932893216609955, -0.601708173751831, 0.09849639236927032, 8.514389038085938, 7.1266560554504395, -1.8417401313781738, -47.64390182495117, -13.205893516540527, 31.811965942382812, -0.822509765625, -0.413330078125, 0.04345703125, 
379, 45257262, 0.6213325262069702, 0.4893348217010498, -0.6040133237838745, 0.09831272065639496, 8.638463020324707, 7.1042938232421875, -1.5635204315185547, -44.531864166259766, -8.094433784484863, 45.154022216796875, -0.821533203125, -0.409912109375, 0.04150390625, 
380, 45265595, 0.6222100257873535, 0.48467177152633667, -0.6067535877227783, 0.09898609668016434, 8.71634292602539, 7.334444046020508, -1.7808386087417603, -43.8135986328125, -5.294515132904053, 61.717384338378906, -0.82568359375, -0.398681640625, 0.0400390625, 
381, 45273928, 0.6231856346130371, 0.47865164279937744, -0.610200047492981, 0.1009371280670166, 8.686742782592773, 7.400476932525635, -2.238962173461914, -46.35515213012695, -0.23232315480709076, 88.37899017333984, -0.8310546875, -0.388427734375, 0.03564453125, 
382, 45282261, 0.6242991089820862, 0.47122374176979065, -0.6142153143882751, 0.1045878529548645, 8.726167678833008, 7.453208923339844, -2.639237880706787, -45.87964630126953, 9.268836975097656, 118.47798156738281, -0.83447265625, -0.376220703125, 0.03369140625, 
383, 45290594, 0.6251357197761536, 0.4626961350440979, -0.6190652251243591, 0.10897771269083023, 8.548665046691895, 7.171453952789307, -2.3981776237487793, -48.46656036376953, 6.081872463226318, 139.81690979003906, -0.839599609375, -0.356201171875, 0.029296875, 
384, 45298927, 0.6249896287918091, 0.4541148543357849, -0.6247375011444092, 0.11345069110393524, 8.41270923614502, 6.505362033843994, -2.128689765930176, -43.21865463256836, -8.692628860473633, 147.79734802246094, -0.843505859375, -0.338134765625, 0.02978515625, 
385, 45307260, 0.6242630481719971, 0.44606372714042664, -0.630433201789856, 0.11779972165822983, 8.338835716247559, 5.887013912200928, -2.197702646255493, -36.12051773071289, -15.530855178833008, 143.14244079589844, -0.8505859375, -0.314453125, 0.02685546875, 
386, 45315593, 0.6239055395126343, 0.4387761354446411, -0.6352606415748596, 0.12108339369297028, 7.979718208312988, 4.872009754180908, -1.519963264465332, -39.6768684387207, -12.600465774536133, 121.53921508789062, -0.85595703125, -0.29736328125, 0.025390625, 
387, 45323926, 0.6237070560455322, 0.43277621269226074, -0.6395650506019592, 0.12104034423828125, 8.2759370803833, 4.487473487854004, -0.6689120531082153, -57.72229766845703, -29.13589096069336, 78.01624298095703, -0.861328125, -0.2841796875, 0.029296875, 
388, 45332259, 0.6230136752128601, 0.428139328956604, -0.6436302661895752, 0.1195441335439682, 8.884723663330078, 5.505893707275391, -1.5607125759124756, -55.523983001708984, -42.15848922729492, 53.27491760253906, -0.8662109375, -0.27392578125, 0.0302734375, 
389, 45340592, 0.6223907470703125, 0.42291852831840515, -0.6478872299194336, 0.11837171018123627, 9.074894905090332, 6.521976470947266, -1.939714789390564, -58.201934814453125, -41.017696380615234, 61.275367736816406, -0.86474609375, -0.267578125, 0.0361328125, 
390, 45348925, 0.6221786737442017, 0.4163397252559662, -0.6524991989135742, 0.1174728274345398, 9.19668197631836, 6.8673577308654785, -2.2351536750793457, -70.54557037353516, -35.88795852661133, 78.0663070678711, -0.8701171875, -0.25537109375, 0.03564453125, 
391, 45357258, 0.6223177313804626, 0.4088473618030548, -0.6570866107940674, 0.11748114973306656, 9.00721263885498, 6.682897090911865, -2.6970574855804443, -72.15660858154297, -25.979236602783203, 93.18699645996094, -0.873046875, -0.24560546875, 0.0390625, 
392, 45365591, 0.6224328279495239, 0.401010125875473, -0.6616156101226807, 0.11846178025007248, 8.978039741516113, 6.3500261306762695, -2.6414642333984375, -66.12785339355469, -19.55089569091797, 104.4636001586914, -0.873779296875, -0.22705078125, 0.03662109375, 
393, 45373924, 0.6219606995582581, 0.3929412364959717, -0.6665484309196472, 0.12031324207782745, 8.816040992736816, 6.08378267288208, -2.677356719970703, -57.59501266479492, -23.219022750854492, 117.17269134521484, -0.876708984375, -0.2109375, 0.0400390625, 
394, 45382257, 0.6209284067153931, 0.3848235607147217, -0.6716307401657104, 0.12357576191425323, 8.865966796875, 5.862993240356445, -3.0072922706604004, -42.309059143066406, -21.88028335571289, 131.4590606689453, -0.880126953125, -0.1953125, 0.04052734375, 
395, 45390590, 0.6197435855865479, 0.37676137685775757, -0.6763507723808289, 0.12852473556995392, 9.001880645751953, 5.731114387512207, -3.1167893409729004, -24.81827735900879, -11.435972213745117, 143.65872192382812, -0.8828125, -0.173095703125, 0.04296875, 
396, 45398923, 0.6181751489639282, 0.36852893233299255, -0.6809571981430054, 0.1354382187128067, 9.190779685974121, 5.769989013671875, -2.964674234390259, -5.828346252441406, -3.4866902828216553, 162.1061553955078, -0.88671875, -0.154541015625, 0.0458984375, 
397, 45407256, 0.6160209774971008, 0.3594669699668884, -0.6858468651771545, 0.14462384581565857, 9.38979434967041, 5.540885925292969, -2.727360248565674, 10.856369018554688, 1.6114310026168823, 191.7169952392578, -0.890869140625, -0.127685546875, 0.04443359375, 
398, 45415589, 0.6137187480926514, 0.34908154606819153, -0.6908594965934753, 0.155579075217247, 9.146016120910645, 5.029744625091553, -2.6359918117523193, 16.804929733276367, 10.622309684753418, 220.09573364257812, -0.893310546875, -0.103271484375, 0.044921875, 
399, 45423922, 0.6119096875190735, 0.3380558490753174, -0.6951599717140198, 0.16744448244571686, 8.825150489807129, 4.2285051345825195, -2.619600296020508, 19.21431541442871, 27.0132999420166, 229.4186248779297, -0.89111328125, -0.066650390625, 0.040283203125, 
400, 45432255, 0.6106048822402954, 0.3269199728965759, -0.6986653804779053, 0.1793099194765091, 8.702109336853027, 3.67033052444458, -2.542311429977417, 17.765640258789062, 38.82372283935547, 225.5817413330078, -0.893310546875, -0.03564453125, 0.034912109375, 
401, 45440588, 0.6095560789108276, 0.3160715103149414, -0.7015857100486755, 0.19057291746139526, 8.852814674377441, 3.2727630138397217, -2.517543315887451, 14.712890625, 42.610816955566406, 214.7438201904297, -0.8916015625, -0.0078125, 0.029052734375, 
402, 45448921, 0.6080740094184875, 0.3060338795185089, -0.7043952345848083, 0.201040118932724, 9.099790573120117, 2.9227325916290283, -2.2787411212921143, 15.97509765625, 33.94272994995117, 200.65963745117188, -0.890380859375, 0.0224609375, 0.023681640625, 
403, 45457254, 0.6060656905174255, 0.2967826724052429, -0.7072374224662781, 0.21076031029224396, 9.303293228149414, 2.589238405227661, -2.070683240890503, 17.560575485229492, 22.606998443603516, 190.044677734375, -0.886962890625, 0.045166015625, 0.02197265625, 
404, 45465587, 0.6038351655006409, 0.2880575358867645, -0.7100162506103516, 0.2197342962026596, 9.06704044342041, 2.021044969558716, -1.9244294166564941, 15.656641006469727, 17.0511474609375, 177.43527221679688, -0.8837890625, 0.070556640625, 0.01611328125, 
405, 45473920, 0.6015508770942688, 0.2800852954387665, -0.7127699255943298, 0.22726160287857056, 8.831274032592773, 1.6740238666534424, -1.6981242895126343, 8.171113014221191, 8.236687660217285, 160.0925750732422, -0.88330078125, 0.09326171875, 0.0166015625, 
406, 45482253, 0.5986742973327637, 0.27271538972854614, -0.7160714864730835, 0.23336051404476166, 9.130919456481934, 1.7666265964508057, -1.7192131280899048, -0.38035276532173157, -8.994321823120117, 144.3773193359375, -0.882080078125, 0.11328125, 0.0185546875, 
407, 45490586, 0.595044732093811, 0.2653660476207733, -0.7199797630310059, 0.23902247846126556, 9.35673999786377, 1.9766353368759155, -2.0790956020355225, -3.608832597732544, -23.229711532592773, 145.8961639404297, -0.877197265625, 0.135009765625, 0.01953125, 
408, 45498919, 0.5913366675376892, 0.257448673248291, -0.7239554524421692, 0.24480533599853516, 9.0367431640625, 1.6124560832977295, -2.2558059692382812, -7.0239033699035645, -22.129291534423828, 152.39097595214844, -0.876708984375, 0.154052734375, 0.02392578125, 
409, 45507252, 0.5880612730979919, 0.24914489686489105, -0.7273591160774231, 0.25111696124076843, 8.62002944946289, 1.0168672800064087, -2.198385238647461, -4.41542911529541, -10.25378704071045, 158.89564514160156, -0.873046875, 0.17724609375, 0.025390625, 
410, 45515585, 0.5850610136985779, 0.24100372195243835, -0.7301328182220459, 0.2579284906387329, 8.141261100769043, 0.3135436177253723, -1.7283012866973877, 3.0398476123809814, -1.0003598928451538, 156.3651885986328, -0.8662109375, 0.19775390625, 0.02880859375, 
411, 45523918, 0.5823719501495361, 0.23393815755844116, -0.7324222326278687, 0.2639576494693756, 7.615863800048828, -0.12682989239692688, -1.340764045715332, 4.553069591522217, -0.4313764274120331, 137.14744567871094, -0.862548828125, 0.218017578125, 0.02783203125, 
412, 45532251, 0.580216646194458, 0.2285698503255844, -0.7340044975280762, 0.2689647376537323, 7.265004634857178, -0.5309496521949768, -1.464113712310791, 8.670775413513184, 1.202075481414795, 107.06980895996094, -0.858154296875, 0.232666015625, 0.029052734375, 
413, 45540584, 0.579089343547821, 0.224581778049469, -0.7345168590545654, 0.2733197808265686, 7.615688323974609, -0.2644158601760864, -1.7405153512954712, 13.831296920776367, 12.955721855163574, 80.86054229736328, -0.852294921875, 0.24267578125, 0.027587890625, 
414, 45548917, 0.578796923160553, 0.22091272473335266, -0.7342862486839294, 0.2775169909000397, 8.366698265075684, 0.2861166000366211, -2.2526395320892334, 14.98656940460205, 25.624113082885742, 70.85923767089844, -0.84814453125, 0.255859375, 0.024658203125, 
415, 45557250, 0.5797083973884583, 0.21668650209903717, -0.7331159114837646, 0.28200387954711914, 8.790817260742188, 0.39923056960105896, -2.623317003250122, 13.409795761108398, 48.26567459106445, 71.40409851074219, -0.8447265625, 0.262451171875, 0.020263671875, 
416, 45565583, 0.5816109776496887, 0.21223413944244385, -0.7310038208961487, 0.2869124412536621, 8.517074584960938, -0.24756217002868652, -2.521540880203247, 16.553741455078125, 67.89888763427734, 70.33423614501953, -0.843017578125, 0.271728515625, 0.009033203125, 
417, 45573916, 0.5836508870124817, 0.20893071591854095, -0.728266716003418, 0.29210835695266724, 8.202681541442871, -1.127687931060791, -2.2106568813323975, 30.713455200195312, 70.59614562988281, 59.099674224853516, -0.838134765625, 0.278564453125, 0.002197265625, 
418, 45582249, 0.5845798850059509, 0.20742444694042206, -0.7259052991867065, 0.2971583306789398, 8.093719482421875, -1.6022064685821533, -1.7075647115707397, 45.341617584228516, 48.80465316772461, 45.08795928955078, -0.8359375, 0.283447265625, -0.0068359375, 
419, 45590582, 0.5842636823654175, 0.2076481431722641, -0.7244753837585449, 0.30108752846717834, 8.288286209106445, -1.5967907905578613, -1.8123679161071777, 47.81780242919922, 18.64702606201172, 26.8309268951416, -0.83447265625, 0.289306640625, -0.017578125, 
420, 45598915, 0.5831222534179688, 0.2091219425201416, -0.7236300110816956, 0.3042965829372406, 8.541131019592285, -1.4072659015655518, -1.8951082229614258, 50.61166000366211, -1.5304030179977417, 13.400337219238281, -0.8349609375, 0.285888671875, -0.017578125, 
421, 45607248, 0.5813458561897278, 0.21150800585746765, -0.7232282161712646, 0.30698952078819275, 9.008968353271484, -1.3389266729354858, -1.2279026508331299, 52.77090835571289, -16.677167892456055, 4.322605609893799, -0.834228515625, 0.287841796875, -0.01904296875, 
422, 45615581, 0.5792264938354492, 0.21409942209720612, -0.7233142256736755, 0.30899009108543396, 9.7333345413208, -0.8321568965911865, -1.0405844449996948, 46.454036712646484, -26.89849853515625, -0.5934321880340576, -0.833251953125, 0.285400390625, -0.02001953125, 
423, 45623914, 0.5774931311607361, 0.21605102717876434, -0.7233906388282776, 0.3106923997402191, 10.256938934326172, -0.2750820815563202, -1.5046757459640503, 37.32731628417969, -21.056320190429688, 2.223921060562134, -0.83203125, 0.283935546875, -0.01806640625, 
424, 45632247, 0.5768430233001709, 0.21695616841316223, -0.7229214310646057, 0.31235694885253906, 10.338674545288086, -0.1329296976327896, -1.7133026123046875, 27.720653533935547, -1.6736352443695068, 5.588889122009277, -0.8349609375, 0.282470703125, -0.0205078125, 
425, 45640580, 0.5772538185119629, 0.21745087206363678, -0.7217703461647034, 0.3139122724533081, 10.413267135620117, -0.28303781151771545, -1.7332053184509277, 23.28101348876953, 16.080745697021484, 4.419880390167236, -0.8349609375, 0.283935546875, -0.01806640625, 
426, 45648913, 0.5781315565109253, 0.21778184175491333, -0.7202095985412598, 0.3156473934650421, 10.572090148925781, -0.31760990619659424, -1.4102849960327148, 24.000782012939453, 24.84861183166504, 2.0220794677734375, -0.835693359375, 0.285400390625, -0.0205078125, 
427, 45657246, 0.5789012312889099, 0.21825331449508667, -0.7186627984046936, 0.3174317181110382, 10.679346084594727, -0.28368785977363586, -1.1986079216003418, 25.90525245666504, 23.32520294189453, 2.2314248085021973, -0.833740234375, 0.281494140625, -0.0244140625, 
428, 45665579, 0.5792108774185181, 0.21882013976573944, -0.7173654437065125, 0.31940507888793945, 10.69467544555664, -0.2725655734539032, -1.2820857763290405, 28.785009384155273, 16.826276779174805, 4.856937885284424, -0.831298828125, 0.283447265625, -0.02734375, 
429, 45673912, 0.5790281891822815, 0.21950972080230713, -0.7162246108055115, 0.3218136429786682, 10.668380737304688, -0.3717097342014313, -1.397734522819519, 34.87455368041992, 11.574767112731934, 10.244797706604004, -0.829833984375, 0.283447265625, -0.03271484375, 
430, 45682245, 0.5785081386566162, 0.22027873992919922, -0.7150839567184448, 0.32474687695503235, 10.450347900390625, -0.7486498951911926, -1.1678606271743774, 41.66735076904297, 9.401374816894531, 14.635268211364746, -0.832275390625, 0.283935546875, -0.03369140625, 
431, 45690578, 0.5774220824241638, 0.2216472625732422, -0.7140536904335022, 0.327999472618103, 10.167014122009277, -1.2640866041183472, -0.7928257584571838, 50.81990432739258, 1.3271151781082153, 14.623600959777832, -0.831787109375, 0.285400390625, -0.03515625, 
432, 45698911, 0.5754258036613464, 0.22406233847141266, -0.7133099436759949, 0.3314671516418457, 10.056052207946777, -1.5505999326705933, -0.553182065486908, 62.70186233520508, -14.031144142150879, 10.555112838745117, -0.832275390625, 0.281005859375, -0.03759765625, 
433, 45707244, 0.5727487206459045, 0.2271040976047516, -0.712864875793457, 0.3349725902080536, 10.271248817443848, -1.4633091688156128, -0.31411153078079224, 68.82056427001953, -25.62518882751465, 9.855213165283203, -0.831298828125, 0.286376953125, -0.0390625, 
434, 45715577, 0.5698461532592773, 0.22947905957698822, -0.7128483653068542, 0.3383226990699768, 10.217483520507812, -1.3304188251495361, -0.28988516330718994, 60.72428894042969, -28.810321807861328, 16.420623779296875, -0.833251953125, 0.282470703125, -0.03369140625, 
435, 45723910, 0.5671149492263794, 0.2310906946659088, -0.7130202054977417, 0.3414383828639984, 10.009979248046875, -1.487186074256897, -0.8703222274780273, 51.104217529296875, -25.558712005615234, 23.468441009521484, -0.834716796875, 0.2822265625, -0.0341796875, 
436, 45732243, 0.5647146105766296, 0.23214159905910492, -0.713019609451294, 0.3446897566318512, 9.679618835449219, -1.5544695854187012, -1.1535401344299316, 47.740196228027344, -18.141414642333984, 26.320716857910156, -0.832275390625, 0.283935546875, -0.0341796875, 
437, 45740576, 0.5629363656044006, 0.23298758268356323, -0.7127091884613037, 0.3476566970348358, 9.41787338256836, -1.7506589889526367, -1.1241751909255981, 42.93617630004883, -9.324166297912598, 24.09850311279297, -0.834228515625, 0.286376953125, -0.03125, 
438, 45748909, 0.5613657236099243, 0.2339007705450058, -0.7122204303741455, 0.35057273507118225, 9.441408157348633, -2.014152765274048, -1.099420189857483, 43.051151275634766, -6.642245292663574, 19.570940017700195, -0.833251953125, 0.288330078125, -0.03369140625, 
439, 45757242, 0.5594455003738403, 0.2358926683664322, -0.7116801142692566, 0.3533933162689209, 9.431150436401367, -2.064459800720215, -1.2543095350265503, 52.076332092285156, -14.479562759399414, 14.870935440063477, -0.831787109375, 0.286376953125, -0.0322265625, 
440, 45765575, 0.5571032762527466, 0.23846308887004852, -0.7111366987228394, 0.35644906759262085, 9.113039016723633, -2.169520378112793, -1.52218496799469, 59.95219039916992, -21.329587936401367, 7.978951930999756, -0.832275390625, 0.288818359375, -0.033203125, 
441, 45773908, 0.5550912022590637, 0.24245493113994598, -0.7102664113044739, 0.3586239218711853, 8.770528793334961, -2.5544087886810303, -1.2382193803787231, 63.00844192504883, -24.76563262939453, -10.73768424987793, -0.831787109375, 0.285888671875, -0.03466796875, 
442, 45782241, 0.5521770715713501, 0.24831941723823547, -0.7094398140907288, 0.3607397675514221, 9.596920013427734, -2.7195382118225098, -0.6023643612861633, 79.25257873535156, -44.027305603027344, -29.497438430786133, -0.835693359375, 0.28125, -0.0322265625, 
443, 45790574, 0.5484716892242432, 0.2554500699043274, -0.7087585926055908, 0.3627471923828125, 9.687921524047852, -2.4785215854644775, -0.02571004256606102, 89.89354705810547, -59.23760986328125, -36.77056884765625, -0.837890625, 0.2744140625, -0.025390625, 
444, 45798907, 0.5454131364822388, 0.2619231045246124, -0.7083630561828613, 0.3635144829750061, 9.455634117126465, -2.2197563648223877, -0.7569949626922607, 69.04265594482422, -56.42921447753906, -43.40984344482422, -0.841796875, 0.26513671875, -0.0224609375, 
445, 45807240, 0.5439664125442505, 0.26748812198638916, -0.707219123840332, 0.36385679244995117, 9.115492820739746, -2.2494707107543945, -1.7655258178710938, 56.28822326660156, -31.55950164794922, -45.09252166748047, -0.8447265625, 0.26171875, -0.01806640625, 
446, 45815573, 0.5449777245521545, 0.2722971737384796, -0.7043114304542542, 0.3644159436225891, 8.429875373840332, -2.8682940006256104, -1.981324553489685, 52.264915466308594, 9.572898864746094, -58.31409454345703, -0.845947265625, 0.248046875, -0.016357421875, 
447, 45823906, 0.5483855605125427, 0.27840879559516907, -0.6994900107383728, 0.3639722466468811, 8.304993629455566, -3.597212791442871, -1.2965714931488037, 53.16189193725586, 37.40324401855469, -94.36436462402344, -0.8505859375, 0.239501953125, -0.02734375, 
448, 45832239, 0.5530457496643066, 0.2872346043586731, -0.6934182047843933, 0.36167415976524353, 7.9021148681640625, -3.6116738319396973, -0.7923543453216553, 57.02252960205078, 37.63643264770508, -148.76730346679688, -0.85400390625, 0.2177734375, -0.033935546875, 
449, 45840572, 0.559047281742096, 0.29878151416778564, -0.6865879893302917, 0.35607993602752686, 8.197205543518066, -3.0360968112945557, -0.5523831248283386, 44.79563522338867, 29.78492546081543, -208.78787231445312, -0.859130859375, 0.19140625, -0.036865234375, 
450, 45848905, 0.5637757182121277, 0.3122570514678955, -0.680251955986023, 0.3491562008857727, 9.2124662399292, -2.218174457550049, -1.3889051675796509, 49.84333419799805, -1.0851486921310425, -229.61587524414062, -0.861083984375, 0.158935546875, -0.040283203125, 
451, 45857238, 0.566192090511322, 0.32647135853767395, -0.6747084856033325, 0.34294554591178894, 9.501747131347656, -1.6385302543640137, -2.366062641143799, 68.37905883789062, -29.279525756835938, -216.21322631835938, -0.8701171875, 0.126953125, -0.039306640625, 
452, 45865571, 0.5672687888145447, 0.3400903642177582, -0.6689126491546631, 0.3392648994922638, 9.976970672607422, -1.205622673034668, -2.810279130935669, 94.40574645996094, -25.64230728149414, -186.08261108398438, -0.877685546875, 0.097900390625, -0.039306640625, 
453, 45873904, 0.5680298209190369, 0.3526575267314911, -0.6623947620391846, 0.3379470109939575, 10.160109519958496, -1.0364017486572266, -1.6291295289993286, 112.9182357788086, -5.965699672698975, -156.68373107910156, -0.8818359375, 0.0693359375, -0.035888671875, 
