sep=,
DeviceTag:,Xsens DOT
FirmwareVersion:,3.0.0
AppVersion:,2023.6.0
SyncStatus:,Un-synced
OutputRate:,60Hz
FilterProfile:,Dynamic
Measurement Mode:,Custom modes - custom mode1
StartTime: ,2024-03-25_18:11:24_874 CET
© Movella Technologies B. V. 2005-2024

PacketCounter,SampleTimeFine,Euler_X,Euler_Y,Euler_Z,FreeAcc_X,FreeAcc_Y,FreeAcc_Z,Gyr_X,Gyr_Y,Gyr_Z
1,886546881,-0.577381,0.833098,120.532089,0.002496,-0.004901,0.516185,-0.034298,-0.041075,0.026961
2,886563548,-0.562597,0.844677,120.519684,0.004677,0.000934,0.510784,0.857264,0.495241,1.249266
3,886580215,-0.551584,0.855273,120.528786,0.008589,0.008239,0.538848,0.772959,0.488095,1.225843
4,886596882,-0.542827,0.863296,120.531555,0.006474,0.006186,0.522942,0.825427,0.457629,1.241928
5,886613549,-0.534495,0.870943,120.512062,0.008578,0.014289,0.505388,0.828603,0.474712,1.219260
6,886630216,-0.527391,0.876844,120.531067,-0.001778,0.014059,0.513686,0.826759,0.467246,1.280206
7,886646883,-0.519130,0.880760,120.541817,0.005650,0.013633,0.506298,0.791900,0.432899,1.322134
8,886663550,-0.510410,0.884499,120.546623,0.010202,0.016594,0.515030,0.814016,0.427329,1.231017
9,886680217,-0.501621,0.888867,120.531898,0.021259,0.022047,0.496478,0.824915,0.452147,1.277837
10,886696884,-0.494359,0.893431,120.534996,-0.006210,0.009771,0.518144,0.815796,0.458218,1.169585
11,886713551,-0.484655,0.897828,120.546173,-0.010748,0.031529,0.506266,0.832125,0.435409,1.247166
12,886730218,-0.472980,0.901750,120.571449,0.011178,0.009431,0.514785,0.914111,0.487480,1.232477
13,886746885,-0.462057,0.906259,120.584381,0.019199,0.016932,0.522573,0.855048,0.463366,1.150836
14,886763552,-0.451774,0.911937,120.605354,0.007215,0.014356,0.518509,0.828424,0.496918,1.276479
15,886780219,-0.440515,0.916221,120.600258,0.012699,0.023678,0.519334,0.873143,0.400896,1.192585
16,886796886,-0.429955,0.919840,120.598167,0.006562,0.031111,0.502798,0.832931,0.358149,1.264864
17,886813553,-0.419141,0.924315,120.594749,0.003766,0.031911,0.517694,0.856495,0.431235,1.156868
18,886830220,-0.407749,0.928203,120.621948,0.013626,0.023449,0.521451,0.871939,0.399091,1.234423
19,886846887,-0.397345,0.933460,120.636017,0.018653,0.032321,0.508314,0.808497,0.468808,1.239161
20,886863554,-0.387736,0.937668,120.651428,0.034655,0.030613,0.518521,0.776750,0.408798,1.211615
21,886880221,-0.377399,0.941859,120.639572,0.024436,0.018989,0.507811,0.833162,0.388500,1.175604
22,886896888,-0.367606,0.947201,120.650688,0.031010,0.033120,0.525307,0.803566,0.443695,1.241877
23,886913555,-0.356516,0.953272,120.667030,0.029607,0.032310,0.515282,0.877434,0.474917,1.279169
24,886930222,-0.347002,0.958188,120.655701,0.022778,0.044209,0.512868,0.794269,0.404124,1.232746
25,886946889,-0.337082,0.963914,120.668144,0.014367,0.033265,0.517947,0.821252,0.459293,1.259216
26,886963556,-0.327835,0.969627,120.676033,0.029798,0.041306,0.513649,0.768477,0.457347,1.220989
27,886980223,-0.317917,0.974452,120.666260,0.030169,0.038288,0.520605,0.814593,0.404738,1.207453
28,886996890,-0.307221,0.979859,120.668518,0.014500,0.035970,0.519194,0.857110,0.434295,1.211487
29,887013557,-0.295951,0.985337,120.685905,0.030064,0.045547,0.519065,0.882863,0.439533,1.249330
30,887030224,-0.285559,0.990495,120.694809,0.045369,0.046168,0.524918,0.831331,0.420388,1.277440
31,887046891,-0.275139,0.995232,120.679924,0.041771,0.045726,0.509347,0.837555,0.389973,1.204354
32,887063558,-0.265163,1.000064,120.684906,0.035314,0.044815,0.514132,0.824505,0.397528,1.233962
33,887080225,-0.254787,1.005745,120.698730,0.050447,0.054378,0.498856,0.844329,0.445181,1.234090
34,887096892,-0.244028,1.010895,120.706345,0.035281,0.045780,0.515400,0.885181,0.416443,1.179138
35,887113559,-0.233750,1.016096,120.719727,0.036567,0.059832,0.515124,0.840987,0.412371,1.222962
36,887130226,-0.224266,1.021950,120.729385,0.035328,0.064137,0.513261,0.794423,0.454504,1.197195
37,887146893,-0.213021,1.028022,120.728523,0.039314,0.062951,0.510773,0.900971,0.471908,1.218582
38,887163560,-0.202537,1.034047,120.724403,0.041513,0.061846,0.511934,0.857340,0.471408,1.240173
39,887180227,-0.192587,1.040372,120.718880,0.032358,0.071998,0.518456,0.824326,0.490080,1.243887
40,887196894,-0.181928,1.045906,120.718773,0.028380,0.066626,0.507541,0.862207,0.444899,1.193763
41,887213561,-0.172442,1.050724,120.724960,0.058725,0.076461,0.520850,0.796241,0.408363,1.199910
42,887230228,-0.162436,1.055919,120.739540,0.039538,0.075469,0.509789,0.821854,0.426714,1.267848
43,887246895,-0.151649,1.061089,120.751991,0.056391,0.066104,0.526409,0.876896,0.431516,1.243772
44,887263562,-0.141806,1.065915,120.755318,0.031998,0.087522,0.510257,0.810917,0.403675,1.214535
45,887280229,-0.130410,1.069975,120.765152,0.045815,0.075522,0.511043,0.913535,0.368279,1.258346
46,887296896,-0.120977,1.076326,120.781502,0.049581,0.081604,0.505822,0.795037,0.505729,1.259524
47,887313563,-0.111179,1.081592,120.787857,0.057607,0.078283,0.515318,0.822033,0.443746,1.219542
48,887330230,-0.101765,1.086382,120.790726,0.052846,0.078085,0.520669,0.793821,0.411052,1.208388
49,887346897,-0.091165,1.092177,120.797951,0.048312,0.085573,0.505811,0.859863,0.469257,1.297136
50,887363564,-0.081289,1.096733,120.808250,0.054410,0.088481,0.525264,0.827937,0.401652,1.246141
51,887380231,-0.071548,1.101457,120.818657,0.053349,0.073102,0.524656,0.807139,0.405686,1.231721
52,887396898,-0.060421,1.106765,120.825188,0.052126,0.095270,0.510971,0.891687,0.439853,1.156164
53,887413565,-0.049260,1.114067,120.836487,0.053617,0.083459,0.509150,0.902521,0.566162,1.224473
54,887430232,-0.039395,1.119291,120.842400,0.057391,0.083224,0.500989,0.825478,0.441992,1.230223
55,887446899,-0.028428,1.125436,120.844231,0.065002,0.094631,0.527860,0.896310,0.499633,1.264313
56,887463566,-0.018250,1.129501,120.841568,0.048948,0.093776,0.522706,0.833034,0.365615,1.171147
57,887480233,-0.007935,1.135903,120.845116,0.058498,0.084505,0.516966,0.843279,0.508905,1.233616
58,887496900,0.002533,1.141346,120.847740,0.059492,0.093632,0.535616,0.855458,0.452941,1.259408
59,887513567,0.013362,1.145906,120.853615,0.058154,0.095153,0.523289,0.865139,0.393955,1.247678
60,887530234,0.022534,1.150997,120.861374,0.072904,0.100647,0.515220,0.773740,0.430607,1.275416
61,887546901,0.032881,1.155839,120.868858,0.071381,0.108280,0.511197,0.852448,0.418544,1.233079
62,887563568,0.042947,1.160620,120.868790,0.061654,0.113729,0.529295,0.840487,0.417224,1.213818
63,887580235,0.052248,1.165874,120.876411,0.057250,0.104069,0.526661,0.781424,0.441070,1.280629
64,887596902,0.061704,1.171088,120.882805,0.075869,0.112110,0.517126,0.794051,0.440724,1.213690
65,887613569,0.071568,1.177336,120.882301,0.060742,0.123119,0.532108,0.826362,0.506933,1.240788
66,887630236,0.081954,1.182716,120.886864,0.080329,0.099428,0.538303,0.847864,0.451814,1.256015
67,887646903,0.091598,1.187394,120.894852,0.076236,0.118053,0.530640,0.801172,0.406800,1.234551
68,887663570,0.102583,1.192691,120.898788,0.070810,0.126635,0.517383,0.888293,0.447742,1.251968
69,887680237,0.112380,1.198792,120.895454,0.071173,0.121278,0.533089,0.828526,0.502604,1.216661
70,887696904,0.122374,1.204746,120.900429,0.082403,0.129924,0.517097,0.830972,0.489119,1.187795
71,887713571,0.132372,1.210860,120.903145,0.091944,0.115355,0.521651,0.843817,0.506037,1.230633
72,887730238,0.141562,1.217450,120.910782,0.072552,0.132271,0.517967,0.794858,0.532200,1.194864
73,887746905,0.152223,1.222878,120.913544,0.074971,0.129268,0.519650,0.884554,0.466132,1.302118
74,887763572,0.162883,1.226978,120.917068,0.081850,0.113779,0.515876,0.885450,0.386899,1.249740
75,887780239,0.173571,1.230988,120.925659,0.082450,0.136986,0.551290,0.889638,0.382699,1.309930
76,887796906,0.184232,1.235516,120.929344,0.076755,0.128808,0.503960,0.864742,0.402881,1.299505
77,887813573,0.194219,1.240827,120.931435,0.084633,0.122460,0.507483,0.861067,0.467976,1.248075
78,887830240,0.205026,1.245818,120.944580,0.086579,0.136699,0.533018,0.908105,0.447268,1.258845
79,887846907,0.215939,1.251157,120.949425,0.093963,0.132467,0.519237,0.898308,0.459498,1.184209
80,887863574,0.225761,1.255985,120.954117,0.087254,0.124699,0.501793,0.843906,0.434667,1.228712
81,887880241,0.234915,1.262488,120.963142,0.091246,0.119999,0.508752,0.820112,0.541587,1.159929
82,887896908,0.244431,1.267286,120.963661,0.079225,0.137625,0.505597,0.832944,0.437177,1.335760
83,887913575,0.254301,1.272873,120.963646,0.098366,0.142914,0.512958,0.859095,0.486481,1.251430
84,887930242,0.262666,1.278068,120.966446,0.089701,0.136212,0.523849,0.765071,0.460497,1.243900
85,887946909,0.273014,1.283782,120.978867,0.094205,0.143295,0.536726,0.874590,0.488505,1.361859
86,887963576,0.282944,1.288352,120.985138,0.091494,0.142090,0.514524,0.844432,0.415867,1.238265
87,887980243,0.292354,1.294017,120.989983,0.082721,0.154792,0.492095,0.831753,0.490899,1.234462
88,887996910,0.300277,1.298360,121.000587,0.081165,0.143262,0.506565,0.760640,0.422667,1.295151
89,888013577,0.309644,1.303373,121.007538,0.090056,0.158245,0.529495,0.836863,0.457577,1.245808
90,888030244,0.319175,1.308919,121.007950,0.093976,0.154691,0.527764,0.830831,0.482370,1.219094
91,888046911,0.329032,1.314261,121.017921,0.099932,0.164287,0.528296,0.853268,0.471754,1.250854
92,888063578,0.338892,1.318354,121.018837,0.096859,0.155652,0.529979,0.854126,0.399193,1.290528
93,888080245,0.348117,1.323028,121.023781,0.103510,0.170081,0.526983,0.818729,0.433719,1.223205
94,888096912,0.358302,1.327419,121.023758,0.106868,0.163302,0.512882,0.880251,0.420413,1.245795
95,888113579,0.367597,1.331622,121.026230,0.097280,0.167273,0.506362,0.840794,0.415829,1.241416
96,888130246,0.377400,1.336357,121.029877,0.102563,0.161970,0.515096,0.877971,0.452301,1.271728
97,888146913,0.387455,1.340456,121.032249,0.096557,0.171558,0.520499,0.889100,0.411205,1.219043
98,888163580,0.397710,1.346244,121.032295,0.105757,0.174793,0.511196,0.897181,0.512568,1.276005
99,888180247,0.406837,1.350510,121.031189,0.102134,0.186856,0.503875,0.840090,0.426714,1.251712
100,888196914,0.415420,1.353441,121.036842,0.107133,0.167586,0.499630,0.814695,0.352143,1.313182
101,888213581,0.424533,1.358561,121.038231,0.114541,0.178183,0.521535,0.854933,0.486084,1.203227
102,888230248,0.434265,1.362692,121.039352,0.094270,0.184627,0.514747,0.876050,0.418287,1.203227
103,888246915,0.443686,1.368378,121.043587,0.117937,0.182543,0.527443,0.863872,0.516794,1.265914
104,888263582,0.453380,1.373023,121.045776,0.121251,0.178647,0.504269,0.872887,0.450687,1.241390
105,888280249,0.462544,1.377882,121.048195,0.109414,0.181436,0.520047,0.863718,0.474879,1.247102
106,888296916,0.471978,1.382315,121.051773,0.117091,0.179797,0.498707,0.867265,0.444515,1.305832
107,888313583,0.481267,1.386288,121.055717,0.116017,0.190424,0.494059,0.881480,0.426880,1.258448
108,888330250,0.489527,1.389948,121.060898,0.114039,0.177062,0.509160,0.825926,0.412192,1.282818
109,888346917,0.497922,1.394069,121.060013,0.096984,0.172386,0.503251,0.824697,0.434090,1.179189
110,888363584,0.507273,1.398500,121.068123,0.106341,0.184636,0.520231,0.889062,0.455810,1.214458
111,888380251,0.516316,1.401538,121.074394,0.102305,0.186550,0.508225,0.856508,0.366511,1.252301
112,888396918,0.525229,1.406000,121.069382,0.115961,0.197980,0.524390,0.859838,0.461406,1.280565
113,888413585,0.534373,1.409636,121.072838,0.111693,0.174173,0.529197,0.863526,0.404956,1.246231
114,888430252,0.543816,1.414747,121.075241,0.116118,0.184506,0.520798,0.879482,0.493717,1.254670
115,888446919,0.552769,1.419390,121.078751,0.128108,0.186498,0.511805,0.859940,0.470473,1.260740
116,888463586,0.560739,1.424222,121.077766,0.128688,0.198789,0.513697,0.810969,0.487506,1.303334
117,888480253,0.568910,1.429424,121.079857,0.127661,0.197010,0.502087,0.828078,0.508278,1.169662
118,888496920,0.577327,1.433495,121.081551,0.120086,0.210075,0.536484,0.855074,0.448741,1.236575
119,888513587,0.586965,1.436866,121.085182,0.121082,0.198225,0.520309,0.900152,0.392726,1.252122
120,888530254,-0.598088,0.823652,120.081215,0.002391,-0.007053,0.509775,0.827015,0.498494,1.218428
121,888546921,-0.597972,0.822380,120.080345,0.002052,0.012566,0.501269,0.856201,0.373235,1.299659
122,888563588,-0.597832,0.821431,120.096092,-0.003082,0.002179,0.522223,0.859658,0.394135,1.220554
123,888580255,-0.599303,0.821710,120.101051,0.005846,-0.004914,0.503459,0.761165,0.466798,1.259524
124,888596922,-0.600506,0.821481,120.109451,-0.006734,-0.001628,0.516659,0.778223,0.436690,1.216174
125,888613589,-0.601601,0.821281,120.115082,-0.007396,-0.002281,0.511798,0.783857,0.438099,1.226855
126,888630256,-0.601118,0.820933,120.124969,0.000219,-0.000956,0.523871,0.877690,0.428827,1.269218
127,888646923,-0.600763,0.821510,120.132401,-0.008689,-0.007243,0.510742,0.870633,0.484880,1.197323
128,888663590,-0.599475,0.821845,120.140419,0.004580,0.003064,0.513906,0.925291,0.469462,1.275672
129,888680257,-0.599730,0.822272,120.146187,-0.006253,0.016302,0.509044,0.832957,0.475122,1.251123
130,888696924,-0.599369,0.822370,120.154106,0.003196,0.012275,0.505584,0.869583,0.455439,1.279322
131,888713591,-0.599679,0.821682,120.157234,-0.002048,0.000053,0.502849,0.829538,0.408567,1.266554
132,888730258,-0.599470,0.822269,120.161583,0.000231,-0.005901,0.518327,0.861233,0.485610,1.220016
133,888746925,-0.599177,0.821737,120.167534,-0.001511,-0.004862,0.522093,0.865741,0.417942,1.227687
134,888763592,-0.598984,0.820868,120.168808,-0.002868,0.009342,0.523298,0.860363,0.398194,1.163553
135,888780259,-0.598441,0.820968,120.173325,0.004877,-0.003425,0.516220,0.878945,0.454722,1.326309
136,888796926,-0.599181,0.821966,120.173439,-0.002326,0.003719,0.505661,0.803349,0.509520,1.229672
137,888813593,-0.600203,0.821753,120.177574,-0.002081,-0.002006,0.518011,0.785919,0.436549,1.274072
138,888830260,-0.600533,0.821992,120.180748,-0.000325,-0.004735,0.532070,0.827514,0.463750,1.240186
139,888846927,-0.598980,0.821257,120.180687,-0.006973,0.007025,0.516998,0.941107,0.405763,1.174451
140,888863594,-0.599154,0.820220,120.186111,-0.006478,-0.001952,0.516262,0.836568,0.387155,1.243336
141,888880261,-0.599514,0.819497,120.194405,-0.007071,0.006066,0.509686,0.824710,0.405660,1.278682
142,888896928,-0.598908,0.819004,120.194885,0.013391,0.002692,0.504863,0.883773,0.420452,1.193776
143,888913595,-0.600077,0.819178,120.198883,0.010133,-0.012305,0.523514,0.776942,0.459972,1.230005
144,888930262,-0.599513,0.819275,120.201561,-0.001230,-0.006973,0.512852,0.880328,0.454593,1.254824
145,888946929,-0.599100,0.818709,120.204376,0.008299,-0.004787,0.507855,0.871466,0.414868,1.238009
146,888963596,-0.598559,0.817072,120.209244,-0.001782,-0.012821,0.516159,0.877997,0.349492,1.325809
147,888980263,-0.598727,0.816613,120.209717,0.004302,-0.023365,0.525612,0.837068,0.421438,1.182160
148,888996930,-0.598390,0.816506,120.212669,0.001363,-0.012078,0.534054,0.866433,0.441518,1.232028
149,889013597,-0.600015,0.816109,120.221481,-0.009396,0.001180,0.525660,0.747398,0.423039,1.311620
150,889030264,-0.598816,0.816364,120.224960,0.000525,-0.010797,0.531009,0.917863,0.463122,1.227841
151,889046931,-0.598879,0.816864,120.227737,0.006382,0.001826,0.508214,0.841460,0.477261,1.259690
152,889063598,-0.599596,0.817064,120.229019,0.013100,-0.014345,0.500305,0.802977,0.459678,1.219978
153,889080265,-0.599575,0.817250,120.231522,0.002090,-0.011495,0.523671,0.847082,0.458294,1.242530
154,889096932,-0.600569,0.817399,120.234222,-0.004089,-0.001779,0.517452,0.785420,0.455439,1.272241
155,889113599,-0.599982,0.817486,120.235634,0.006662,-0.006312,0.539019,0.879892,0.451546,1.293102
156,889130266,-0.599803,0.817365,120.240265,0.017023,-0.002354,0.527073,0.855586,0.439136,1.268155
157,889146933,-0.600141,0.816301,120.242844,0.001416,-0.002765,0.518654,0.825619,0.383006,1.217442
158,889163600,-0.600844,0.816344,120.245468,-0.000323,-0.014907,0.515819,0.802913,0.448715,1.271165
159,889180267,-0.600425,0.816146,120.248039,0.000661,0.001960,0.511366,0.869993,0.434116,1.273649
160,889196934,-0.601650,0.815712,120.248512,0.003628,-0.011227,0.510102,0.772191,0.420490,1.215073
161,889213601,-0.601679,0.816675,120.252708,0.003811,-0.003707,0.527702,0.843381,0.503808,1.254401
162,889230268,-0.602896,0.817335,120.257790,0.016215,-0.009409,0.499794,0.771858,0.485470,1.258474
163,889246935,-0.604002,0.817106,120.262787,0.002872,-0.000459,0.552923,0.779170,0.432131,1.236472
164,889263602,-0.604523,0.816921,120.263802,0.000438,-0.007661,0.530691,0.813440,0.434487,1.265581
165,889280269,-0.606165,0.816911,120.265892,0.002363,-0.001329,0.517934,0.746655,0.445181,1.232246
166,889296936,-0.605889,0.817694,120.269165,-0.002561,-0.015655,0.536469,0.861861,0.492782,1.233693
167,889313603,-0.605200,0.817446,120.273155,-0.001552,-0.005863,0.524645,0.885694,0.430287,1.274558
168,889330270,-0.603649,0.816861,120.275970,0.006718,-0.012174,0.500285,0.938238,0.410680,1.214228
169,889346937,-0.604285,0.815904,120.279785,-0.009601,0.002212,0.531002,0.807037,0.387962,1.223666
170,889363604,-0.604862,0.815436,120.284073,-0.000181,-0.011206,0.538201,0.809611,0.417109,1.267848
171,889380271,-0.605240,0.814633,120.288605,0.010204,-0.006010,0.517552,0.822212,0.397413,1.213472
172,889396938,-0.606588,0.814795,120.290482,0.010109,-0.013804,0.515335,0.764213,0.455298,1.203009
173,889413605,-0.605975,0.813969,120.290520,0.003361,-0.004795,0.513089,0.882121,0.395927,1.185529
174,889430272,-0.606910,0.813229,120.289772,0.000751,-0.005544,0.524367,0.788814,0.400756,1.218338
175,889446939,-0.607672,0.812601,120.290039,0.011747,-0.010122,0.537578,0.798879,0.407300,1.226061
176,889463606,-0.607985,0.813008,120.291077,-0.010909,-0.011685,0.519274,0.825721,0.469257,1.236178
177,889480273,-0.607546,0.813361,120.293663,0.001173,-0.002438,0.510910,0.870377,0.465658,1.256181
178,889496940,-0.607311,0.812867,120.295380,-0.011315,0.013795,0.509000,0.858147,0.414753,1.261022
179,889513607,-0.607508,0.812192,120.297089,-0.004082,0.001514,0.525686,0.831497,0.403765,1.303257
180,889530274,-0.607585,0.812298,120.300613,-0.001469,-0.007826,0.491074,0.839078,0.451084,1.270563
181,889546941,-0.607793,0.811978,120.300545,0.005562,-0.000759,0.522326,0.831625,0.425549,1.240775
182,889563608,-0.608262,0.811818,120.299263,0.013895,-0.006790,0.535164,0.815771,0.435230,1.250265
183,889580275,-0.607825,0.811060,120.303139,-0.003772,-0.014730,0.512801,0.869698,0.398873,1.288581
184,889596942,-0.608638,0.810606,120.305588,-0.006081,-0.006814,0.522328,0.794820,0.417096,1.269077
185,889613609,-0.609284,0.809416,120.306000,0.000916,0.006015,0.516183,0.804975,0.373145,1.247473
186,889630276,-0.609789,0.810083,120.310791,-0.011376,0.008966,0.534138,0.814337,0.485239,1.197387
187,889646943,-0.611827,0.810790,120.311188,-0.004530,-0.002864,0.510354,0.721849,0.487634,1.217122
188,889663610,-0.610435,0.811586,120.313469,-0.008824,-0.008412,0.519713,0.927084,0.492564,1.254977
189,889680277,-0.611248,0.812009,120.315521,0.001934,-0.009452,0.511824,0.795255,0.470601,1.211039
190,889696944,-0.611754,0.812436,120.317703,0.008397,-0.000576,0.544113,0.813415,0.470614,1.229250
191,889713611,-0.611699,0.812339,120.315247,-0.006313,-0.003873,0.506661,0.846481,0.438816,1.263340
192,889730278,-0.612067,0.812144,120.319832,-0.013526,-0.008354,0.509052,0.819638,0.431772,1.368916
193,889746945,-0.611871,0.811865,120.322311,0.008653,-0.001340,0.516953,0.854984,0.427956,1.252070
194,889763612,-0.611515,0.811265,120.326088,-0.006374,-0.010855,0.512659,0.864601,0.408695,1.255041
195,889780279,-0.612856,0.810735,120.327606,-0.007481,0.005803,0.513570,0.763534,0.413434,1.191586
196,889796946,-0.612380,0.809756,120.330200,0.000901,-0.012855,0.521831,0.870710,0.385388,1.317934
197,889813613,-0.613038,0.809841,120.330078,-0.012116,-0.009689,0.530291,0.803624,0.449861,1.242421
198,889830280,-0.612867,0.809455,120.333290,-0.003988,0.002400,0.526603,0.852461,0.421130,1.297904
199,889846947,-0.613613,0.808854,120.333015,-0.002708,-0.014829,0.529433,0.799187,0.409579,1.173234
200,889863614,-0.613156,0.808116,120.334465,-0.005651,-0.004339,0.521667,0.870287,0.400512,1.240622
201,889880281,-0.613270,0.807327,120.334290,-0.006028,-0.002448,0.491940,0.835979,0.397464,1.237407
202,889896948,-0.613460,0.807013,120.336472,-0.000496,-0.012833,0.505765,0.832803,0.426983,1.140092
203,889913615,-0.614323,0.807761,120.339043,0.003417,0.000723,0.514238,0.790594,0.489363,1.264736
204,889930282,-0.614843,0.808579,120.340752,0.007047,-0.002204,0.543997,0.811237,0.493537,1.264825
205,889946949,-0.614848,0.808268,120.342896,0.000446,-0.004049,0.526977,0.841601,0.425549,1.296188
206,889963616,-0.614759,0.806889,120.344940,-0.002809,-0.009027,0.514838,0.847300,0.361389,1.299198
207,889980283,-0.614765,0.806438,120.346024,0.007498,-0.016296,0.521841,0.842203,0.417583,1.245654
208,889996950,-0.615604,0.805576,120.346375,-0.017702,-0.011427,0.532097,0.792450,0.392892,1.230466
209,890013617,-0.616102,0.805150,120.348221,-0.006581,-0.002104,0.538518,0.812313,0.418787,1.261893
210,890030284,-0.615962,0.805806,120.348915,0.001711,-0.016449,0.534967,0.850899,0.484112,1.241454
211,890046951,-0.615427,0.805692,120.351379,-0.008525,-0.002931,0.519563,0.874398,0.437676,1.246269
212,890063618,-0.614853,0.806363,120.353699,-0.010981,0.006205,0.522933,0.876050,0.484240,1.291693
213,890080285,-0.614419,0.805952,120.356392,-0.013467,-0.005146,0.524971,0.867508,0.419376,1.297238
214,890096952,-0.614867,0.805774,120.359070,-0.005364,-0.003159,0.529352,0.815156,0.433962,1.252916
215,890113619,-0.614002,0.805559,120.360779,-0.001698,-0.003301,0.515795,0.893198,0.431324,1.296470
216,890130286,-0.613930,0.805378,120.363533,-0.000880,-0.009304,0.513009,0.845686,0.433335,1.289286
217,890146953,-0.614669,0.804673,120.366127,-0.000301,-0.021272,0.530090,0.797868,0.402459,1.229672
218,890163620,-0.613455,0.804235,120.368149,-0.001706,-0.008908,0.495698,0.915468,0.418812,1.197644
219,890180287,-0.612742,0.802637,120.370094,-0.008469,-0.009484,0.511456,0.884413,0.348365,1.255272
220,890196954,-0.612098,0.802442,120.369713,0.006464,-0.001618,0.526585,0.880027,0.432432,1.270134
221,890213621,-0.612341,0.802471,120.370117,-0.007751,-0.002986,0.530233,0.827950,0.446807,1.195082
222,890230288,-0.612802,0.802384,120.375839,0.001477,-0.005888,0.529009,0.813504,0.438880,1.293768
223,890246955,-0.613970,0.801710,120.380226,0.000351,-0.008474,0.493932,0.771218,0.403675,1.282678
224,890263622,-0.614929,0.801238,120.382156,0.005660,-0.007479,0.515684,0.784088,0.415918,1.248024
225,890280289,-0.615488,0.800695,120.383858,0.002246,-0.016996,0.504482,0.807908,0.411602,1.265107
226,890296956,-0.615969,0.799780,120.384979,0.005824,-0.018887,0.526012,0.812761,0.389281,1.250444
227,890313623,-0.615889,0.798783,120.387726,-0.009685,-0.019676,0.534315,0.846865,0.384619,1.225087
228,890330290,-0.615692,0.797854,120.388069,-0.011938,-0.006836,0.523019,0.853383,0.388397,1.250329
229,890346957,-0.614518,0.798226,120.391075,-0.006697,0.008756,0.483704,0.911485,0.466119,1.279297
230,890363624,-0.613681,0.797892,120.391495,-0.009201,-0.005535,0.512697,0.891802,0.424127,1.234539
231,890380291,-0.612589,0.797093,120.393860,0.009516,-0.000904,0.519426,0.906376,0.395928,1.284880
232,890396958,-0.612814,0.796747,120.396294,0.000251,-0.012277,0.509947,0.827540,0.423141,1.278951
233,890413625,-0.612457,0.796498,120.396797,-0.004703,-0.018188,0.518621,0.861938,0.428520,1.311838
234,890430292,-0.613385,0.796311,120.399200,-0.005572,-0.020566,0.502706,0.785689,0.432848,1.246986
235,890446959,-0.611953,0.794583,120.400925,0.011646,-0.019329,0.515469,0.927429,0.340527,1.226445
236,890463626,-0.612360,0.794259,120.403885,-0.003451,-0.006993,0.520128,0.815796,0.423640,1.327000
237,890480293,-0.612188,0.794853,120.407509,-0.000955,-0.010076,0.515484,0.851565,0.479527,1.251840
238,890496960,-0.612354,0.794222,120.408913,-0.000589,-0.007331,0.531463,0.831331,0.406070,1.246269
239,890513627,-0.612221,0.794981,120.413788,-0.001335,-0.016373,0.517351,0.848427,0.488812,1.312939
240,890530294,-0.605935,0.813909,120.405571,0.002128,-0.012226,0.532318,0.807588,0.448024,1.277133
241,890546961,-0.605742,0.814310,120.406799,0.009930,-0.007000,0.532865,0.850976,0.462982,1.250918
242,890563628,-0.606177,0.813542,120.409294,0.004739,0.001350,0.522530,0.813030,0.392572,1.270281
243,890580295,-0.606157,0.813239,120.410652,0.007283,-0.014271,0.524274,0.841358,0.421233,1.199654
244,890596962,-0.606056,0.812801,120.412941,-0.013951,-0.008600,0.521255,0.845917,0.412793,1.221399
245,890613629,-0.606415,0.812554,120.415581,-0.006976,-0.004730,0.520036,0.818678,0.424588,1.188999
246,890630296,-0.606140,0.812376,120.417503,-0.012596,-0.005557,0.510607,0.856431,0.428609,1.208068
247,890646963,-0.606200,0.811923,120.419586,-0.005519,-0.000910,0.532464,0.835339,0.411385,1.270563
248,890663630,-0.605829,0.811533,120.422005,0.002554,-0.005414,0.517333,0.861118,0.415163,1.276197
249,890680297,-0.606081,0.809896,120.424255,0.003170,-0.008326,0.544961,0.824338,0.340771,1.236396
250,890696964,-0.606765,0.809495,120.426033,0.008177,-0.008692,0.543327,0.798073,0.414599,1.257897
251,890713631,-0.607066,0.809009,120.428368,-0.013270,-0.008809,0.542810,0.821201,0.409553,1.258397
252,890730298,-0.607678,0.808569,120.431427,-0.008168,0.011737,0.528482,0.802119,0.412064,1.280411
253,890746965,-0.607998,0.808032,120.434677,0.004285,-0.003829,0.530512,0.819907,0.406531,1.258307
254,890763632,-0.608966,0.807035,120.436150,0.010356,-0.004939,0.509907,0.781207,0.379049,1.244822
255,890780299,-0.608730,0.806572,120.436073,-0.005467,0.010441,0.513672,0.853806,0.411244,1.220682
256,890796966,-0.609446,0.806410,120.438148,-0.004972,-0.001543,0.516561,0.796356,0.429096,1.246320
257,890813633,-0.608938,0.805542,120.439171,0.006954,-0.001952,0.523734,0.869698,0.386745,1.246167
258,890830300,-0.608192,0.805784,120.440155,0.009411,0.001491,0.526480,0.884298,0.453569,1.235345
259,890846967,-0.607128,0.805794,120.443192,-0.002098,0.000559,0.518702,0.902777,0.439059,1.279053
260,890863634,-0.607215,0.805368,120.444717,-0.012473,0.005187,0.505996,0.834154,0.413325,1.251040
261,890880301,-0.606919,0.805545,120.445808,-0.012090,-0.002742,0.512844,0.857494,0.449817,1.219504
262,890896968,-0.607206,0.804370,120.447571,-0.000260,0.009560,0.521594,0.821905,0.368343,1.256015
263,890913635,-0.607574,0.803947,120.449257,-0.011959,-0.005001,0.492847,0.816898,0.413293,1.275391
264,890930302,-0.607719,0.803844,120.450783,0.005344,-0.010209,0.521710,0.830729,0.432925,1.232899
265,890946969,-0.607611,0.804462,120.451851,0.003089,-0.007988,0.500576,0.846327,0.476441,1.208746
266,890963636,-0.607452,0.805084,120.450798,-0.008238,-0.005163,0.507332,0.847928,0.475557,1.304589
267,890980303,-0.608874,0.804398,120.453911,-0.010382,0.004313,0.517961,0.753455,0.397413,1.280398
268,890996970,-0.607271,0.804260,120.454239,-0.004897,-0.009189,0.494551,0.936355,0.431440,1.177909
269,891013637,-0.607186,0.804670,120.455452,-0.001454,0.010041,0.533237,0.844047,0.463366,1.262584
270,891030304,-0.606644,0.804195,120.455376,-0.004385,0.010972,0.528411,0.872644,0.411193,1.185273
271,891046971,-0.606614,0.804214,120.456833,-0.002202,-0.012850,0.529238,0.840615,0.439956,1.279886
272,891063638,-0.606063,0.804578,120.457191,-0.002196,-0.000218,0.521513,0.872439,0.461022,1.237113
273,891080305,-0.604809,0.805656,120.457382,-0.000577,-0.008963,0.521640,0.913893,0.503283,1.289849
274,891096972,-0.604378,0.805722,120.459732,0.011129,-0.003168,0.507960,0.864204,0.442312,1.314578
275,891113639,-0.604347,0.806896,120.462273,-0.007894,-0.006268,0.519382,0.840743,0.509161,1.271459
276,891130306,-0.604929,0.806653,120.462288,-0.004246,0.004548,0.521760,0.804681,0.424691,1.219235
277,891146973,-0.605481,0.806635,120.463013,0.004250,0.007372,0.534883,0.805846,0.437779,1.262136
278,891163640,-0.605211,0.807528,120.461876,0.009593,-0.002375,0.512680,0.855599,0.492782,1.241172
279,891180307,-0.605181,0.807723,120.462685,0.007148,-0.011143,0.518805,0.841192,0.450790,1.239354
280,891196974,-0.604748,0.807981,120.463669,0.005527,0.008291,0.524057,0.865562,0.454632,1.234462
281,891213641,-0.604724,0.807110,120.463531,0.001417,-0.013131,0.517920,0.840846,0.386822,1.241416
282,891230308,-0.604236,0.806398,120.463348,0.000017,0.000638,0.526772,0.868892,0.396440,1.230043
283,891246975,-0.604058,0.806809,120.462914,0.000149,0.008077,0.527754,0.850079,0.463622,1.249445
284,891263642,-0.604468,0.807000,120.461189,-0.000840,0.000967,0.523927,0.815182,0.450777,1.223627
285,891280309,-0.605712,0.806673,120.459755,0.006179,-0.006728,0.528204,0.765263,0.419799,1.210808
286,891296976,-0.605543,0.805597,120.459610,0.008705,-0.004997,0.520787,0.849375,0.374272,1.261931
287,891313643,-0.605397,0.805270,120.458977,-0.006484,0.002202,0.527386,0.848254,0.419408,1.240141
288,891330310,-0.605497,0.804844,120.458191,0.003162,-0.004059,0.513535,0.834250,0.414036,1.190126
289,891346977,-0.605463,0.803581,120.456627,0.007109,0.004444,0.525857,0.841768,0.363348,1.226407
290,891363644,-0.605506,0.803119,120.456757,-0.012823,-0.006000,0.521127,0.836799,0.411218,1.257974
291,891380311,-0.606025,0.803390,120.457001,0.002515,0.007539,0.516691,0.807729,0.454850,1.291040
292,891396978,-0.606492,0.804161,120.454964,-0.006945,-0.015932,0.506537,0.812057,0.485738,1.204405
293,891413645,-0.606902,0.804387,120.452583,-0.005654,0.005808,0.503396,0.814580,0.452416,1.260715
294,891430312,-0.606722,0.804052,120.453568,0.000176,-0.004777,0.530965,0.848875,0.417916,1.336925
295,891446979,-0.606545,0.804243,120.452530,-0.000281,-0.001555,0.511171,0.850066,0.450508,1.245001
296,891463646,-0.605994,0.804527,120.449608,0.002396,0.002398,0.521834,0.873284,0.456681,1.187321
297,891480313,-0.606227,0.804587,120.446846,0.001396,-0.007807,0.506962,0.826208,0.443170,1.197477
298,891496980,-0.606077,0.803341,120.445976,0.003736,0.000033,0.529689,0.848606,0.364296,1.235345
299,891513647,-0.605793,0.803175,120.445412,-0.005062,-0.012950,0.499546,0.856316,0.428981,1.264006
300,891530314,-0.607174,0.802419,120.445473,0.006315,-0.006926,0.518339,0.756477,0.393494,1.253364
301,891546981,-0.607360,0.801779,120.443420,-0.002651,-0.004895,0.511117,0.828961,0.401140,1.194071
302,891563648,-0.606326,0.801217,120.443123,0.000301,0.006258,0.517382,0.901074,0.404866,1.275660
303,891580315,-0.605865,0.801456,120.441277,0.005890,-0.008231,0.515087,0.867688,0.453735,1.204597
304,891596982,-0.605261,0.800519,120.439445,0.016325,-0.008790,0.529654,0.876934,0.383672,1.159583
305,891613649,-0.605180,0.800242,120.440399,0.005040,-0.018970,0.512702,0.843932,0.421950,1.281410
306,891630316,-0.605569,0.799536,120.439873,-0.000069,-0.007273,0.526628,0.815502,0.395966,1.286737
307,891646983,-0.606110,0.799973,120.438271,0.006456,-0.004419,0.519235,0.808036,0.465735,1.176500
308,891663650,-0.605860,0.800234,120.438080,0.002003,-0.002511,0.504613,0.853255,0.453556,1.333404
309,891680317,-0.606991,0.799142,120.437805,-0.002388,-0.005422,0.516615,0.771448,0.373030,1.265389
310,891696984,-0.607369,0.799321,120.436798,0.005878,-0.010172,0.519808,0.817321,0.449945,1.212998
311,891713651,-0.607666,0.799438,120.435112,-0.001423,0.003108,0.517536,0.822238,0.446167,1.205916
312,891730318,-0.607793,0.800049,120.434586,-0.000588,-0.018877,0.512660,0.831740,0.475301,1.260587
313,891746985,-0.608383,0.799766,120.433899,-0.017666,-0.015194,0.529759,0.804335,0.421886,1.228776
314,891763652,-0.608668,0.799482,120.434761,0.000241,-0.002683,0.503448,0.821841,0.421297,1.282409
315,891780319,-0.607406,0.799389,120.435921,-0.006282,-0.007371,0.526769,0.914815,0.432874,1.269858
316,891796986,-0.607845,0.798475,120.437111,-0.008942,-0.004830,0.549082,0.813056,0.383851,1.248715
317,891813653,-0.608443,0.797651,120.435471,-0.007061,0.002197,0.525422,0.804476,0.390101,1.178998
318,891830320,-0.609317,0.796832,120.434258,0.002964,-0.003212,0.531257,0.787392,0.389960,1.213907
319,891846987,-0.609262,0.796165,120.435539,0.003199,-0.008136,0.521516,0.841934,0.398258,1.294485
320,891863654,-0.610535,0.796079,120.435623,-0.007759,-0.005280,0.519709,0.763201,0.433681,1.230543
321,891880321,-0.610855,0.795133,120.435661,0.006212,-0.001845,0.531243,0.820906,0.382481,1.198540
322,891896988,-0.611654,0.794970,120.435440,-0.002948,-0.012256,0.512439,0.791375,0.428904,1.247665
323,891913655,-0.611973,0.794750,120.434311,0.000493,-0.010873,0.514865,0.820740,0.425856,1.208618
324,891930322,-0.611218,0.795257,120.433067,0.000251,-0.004606,0.520038,0.885181,0.469436,1.206249
325,891946989,-0.610782,0.794338,120.433983,0.002067,0.001140,0.524769,0.866010,0.383877,1.214625
326,891963656,-0.610552,0.795107,120.433449,0.000623,-0.001732,0.513043,0.853921,0.485393,1.189883
327,891980323,-0.610305,0.795510,120.431480,-0.007235,-0.010342,0.517561,0.855074,0.463545,1.185400
328,891996990,-0.609085,0.795047,120.430443,-0.001175,-0.005474,0.536364,0.912548,0.410847,1.247627
329,892013657,-0.608134,0.794322,120.430336,0.005818,0.006832,0.517748,0.896387,0.395172,1.251110
330,892030324,-0.608008,0.794380,120.428925,-0.000258,0.004397,0.517257,0.847608,0.442658,1.197669
331,892046991,-0.607613,0.793584,120.430359,0.010678,-0.008829,0.497840,0.862322,0.390357,1.298519
332,892063658,-0.608229,0.792565,120.429649,0.001589,-0.008963,0.510732,0.803592,0.378434,1.158699
333,892080325,-0.608291,0.792958,120.429581,-0.011850,0.003169,0.524211,0.835480,0.462098,1.254721
334,892096992,-0.607093,0.793863,120.429337,0.005198,0.003920,0.513678,0.911908,0.493512,1.203560
335,892113659,-0.607040,0.794144,120.429489,0.003831,-0.013074,0.511028,0.842946,0.455759,1.222116
336,892130326,-0.607387,0.794444,120.429680,-0.004191,0.002532,0.525564,0.819421,0.457257,1.187757
337,892146993,-0.607106,0.793960,120.430199,0.007048,-0.005672,0.530582,0.856405,0.409733,1.242235
338,892163660,-0.607751,0.793725,120.429825,0.008049,-0.010060,0.522320,0.800928,0.424780,1.235025
339,892180327,-0.608631,0.792855,120.429771,-0.006642,-0.006488,0.514914,0.786931,0.386630,1.225164
340,892196994,-0.609486,0.792890,120.429680,-0.006278,-0.009231,0.506632,0.787648,0.440353,1.285982
341,892213661,-0.609179,0.792822,120.428421,0.002905,-0.002416,0.510672,0.858672,0.435179,1.184786
342,892230328,-0.608893,0.792991,120.428078,-0.002683,-0.005785,0.520693,0.857148,0.449279,1.202548
343,892246995,-0.609732,0.793258,120.429268,-0.008758,-0.008551,0.511871,0.788686,0.454350,1.271984
344,892263662,-0.609753,0.792778,120.429565,0.005144,-0.008140,0.531461,0.838067,0.409810,1.245616
345,892280329,-0.609483,0.791943,120.429649,0.004208,-0.001752,0.525250,0.856572,0.389358,1.177742
346,892296996,-0.609429,0.791196,120.429909,-0.003014,-0.003917,0.506872,0.842536,0.393750,1.252736
347,892313663,-0.609783,0.791078,120.432312,-0.009105,-0.001772,0.510013,0.817948,0.431299,1.260587
348,892330330,-0.609155,0.790818,120.432289,-0.004381,-0.000875,0.493283,0.877152,0.423103,1.235589
349,892346997,-0.608956,0.791107,120.433708,0.003807,0.006459,0.508697,0.851308,0.455989,1.241723
350,892363664,-0.609079,0.790478,120.432549,0.002797,-0.008426,0.531969,0.832522,0.401319,1.203265
351,892380331,-0.608369,0.790620,120.433746,-0.007542,-0.011059,0.495296,0.881327,0.446679,1.300453
352,892396998,-0.609107,0.790280,120.433807,0.003203,-0.014285,0.525175,0.795690,0.418710,1.197118
353,892413665,-0.607469,0.789402,120.434570,0.006459,-0.003739,0.518736,0.937956,0.386169,1.223320
354,892430332,-0.607111,0.788397,120.435020,-0.006064,0.001099,0.502523,0.861349,0.378639,1.212588
355,892446999,-0.606222,0.788009,120.433601,-0.004758,-0.002425,0.531065,0.893032,0.415483,1.219069
356,892463666,-0.606139,0.787677,120.435020,-0.008189,-0.006843,0.528615,0.844611,0.418966,1.227277
357,892480333,-0.607322,0.787403,120.434174,0.000487,-0.015185,0.524429,0.769028,0.422667,1.202868
358,892497000,-0.606964,0.787238,120.433365,0.001182,-0.011157,0.516697,0.861887,0.429531,1.168010
359,892513667,-0.607881,0.786072,120.434746,0.002269,-0.011620,0.480759,0.783857,0.368291,1.279156
360,892530334,-0.605119,0.813178,120.445473,0.000486,0.006784,0.507841,0.831049,0.435576,1.206185
361,892547001,-0.605777,0.812672,120.448997,-0.006002,0.008185,0.528169,0.799007,0.403150,1.269538
362,892563668,-0.605477,0.812734,120.448204,-0.009534,-0.001432,0.513305,0.857353,0.437856,1.212050
363,892580335,-0.605135,0.811587,120.449158,0.000869,-0.008427,0.520562,0.859120,0.364885,1.257180
364,892597002,-0.604988,0.811177,120.450867,-0.010417,0.000325,0.526269,0.847684,0.409285,1.244246
365,892613669,-0.606028,0.811882,120.450439,0.007386,-0.003663,0.509264,0.777365,0.476864,1.173964
366,892630336,-0.606569,0.811507,120.452820,-0.012395,-0.017217,0.516527,0.806217,0.411218,1.254772
367,892647003,-0.606276,0.811600,120.453300,0.003856,-0.000052,0.520838,0.856828,0.439636,1.217532
368,892663670,-0.606069,0.810561,120.453499,-0.005149,-0.010566,0.511843,0.851488,0.371583,1.231017
369,892680337,-0.606665,0.809476,120.453064,-0.000179,-0.010090,0.530203,0.803656,0.369162,1.196926
370,892697004,-0.606946,0.809128,120.455086,0.007051,0.000200,0.523684,0.821905,0.412832,1.249202
371,892713671,-0.606024,0.808343,120.455376,0.012316,-0.004843,0.523953,0.894543,0.386925,1.220451
372,892730338,-0.604928,0.808536,120.458336,-0.000664,0.000056,0.520353,0.903507,0.444425,1.325733
373,892747005,-0.605355,0.809000,120.462036,-0.000114,-0.008986,0.530788,0.812006,0.460638,1.328166
374,892763672,-0.605577,0.809645,120.463928,0.011114,-0.002135,0.519689,0.824927,0.471895,1.291565
375,892780339,-0.604793,0.810041,120.466873,0.004716,0.000725,0.520099,0.885297,0.456937,1.290886
376,892797006,-0.604780,0.810239,120.466782,0.001543,0.003312,0.508287,0.840013,0.445808,1.220669
377,892813673,-0.604962,0.810617,120.466873,-0.004000,-0.002685,0.522850,0.828135,0.456470,1.231663
378,892830340,-0.603895,0.809878,120.466957,0.009637,-0.006951,0.528769,0.903097,0.389473,1.229647
379,892847007,-0.604004,0.809823,120.467125,-0.000142,-0.002894,0.512430,0.832509,0.430389,1.236139
380,892863674,-0.603928,0.808335,120.466850,0.006485,-0.003613,0.544560,0.843983,0.344689,1.208939
381,892880341,-0.603413,0.807658,120.468803,0.010369,0.002732,0.510941,0.871120,0.393917,1.157367
382,892897008,-0.602228,0.807225,120.469734,0.012319,-0.006809,0.509013,0.909622,0.407319,1.267291
383,892913675,-0.601968,0.807856,120.468719,-0.012163,0.010125,0.536380,0.855419,0.472061,1.181725
384,892930342,-0.601959,0.808610,120.469650,-0.002811,-0.001722,0.501204,0.839949,0.479054,1.220375
385,892947009,-0.602085,0.808942,120.469994,0.006481,-0.003777,0.518521,0.831779,0.453799,1.215508
386,892963676,-0.601193,0.809973,120.471794,-0.001930,-0.015244,0.521454,0.892443,0.495318,1.261675
387,892980343,-0.600792,0.810059,120.474304,-0.006111,-0.015601,0.511801,0.862706,0.438483,1.263865
388,892997010,-0.600801,0.809613,120.475769,-0.012748,-0.000859,0.543286,0.839155,0.407300,1.188397
389,893013677,-0.600735,0.809881,120.478104,0.000312,-0.005441,0.516571,0.842382,0.449189,1.281909
390,893030344,-0.601433,0.808804,120.480415,0.001681,-0.014882,0.507278,0.796446,0.368509,1.283241
391,893047011,-0.601102,0.808756,120.479973,-0.000989,-0.004885,0.512033,0.859095,0.430825,1.221527
392,893063678,-0.600697,0.809105,120.481079,0.005127,-0.005603,0.515110,0.863410,0.454529,1.230812
393,893080345,-0.601408,0.808791,120.482391,-0.005122,-0.002103,0.517959,0.796177,0.414586,1.247678
394,893097012,-0.601701,0.808717,120.483925,0.002028,-0.005194,0.522754,0.821098,0.428865,1.260036
395,893113679,-0.603257,0.808350,120.484131,0.010417,-0.001502,0.508409,0.745989,0.411756,1.215419
396,893130346,-0.602619,0.807888,120.485794,0.003902,-0.006641,0.532096,0.877228,0.405763,1.240340
397,893147013,-0.602190,0.807593,120.486534,0.000851,0.005740,0.499920,0.864749,0.415771,1.238950
398,893163680,-0.602422,0.807553,120.490204,-0.002791,0.001263,0.525269,0.824287,0.430479,1.292462
399,893180347,-0.601465,0.807442,120.492226,0.021055,-0.011150,0.503777,0.896323,0.426727,1.252275
400,893197014,-0.601021,0.807937,120.493134,-0.006458,-0.000651,0.535327,0.865985,0.463340,1.223102
401,893213681,-0.602133,0.807325,120.494057,0.017240,0.000909,0.503506,0.771884,0.396414,1.269526
402,893230348,-0.602537,0.807942,120.496338,0.008879,-0.002284,0.528856,0.813261,0.469231,1.350769
403,893247015,-0.603080,0.808654,120.495880,0.002441,0.007837,0.540442,0.807357,0.476646,1.187783
404,893263682,-0.603456,0.809552,120.495903,-0.010362,-0.002036,0.514338,0.816923,0.487583,1.215956
405,893280349,-0.603190,0.808649,120.496353,-0.001538,-0.001794,0.514318,0.855061,0.379190,1.241249
406,893297016,-0.604379,0.808927,120.496475,0.000772,-0.007364,0.512505,0.768016,0.450290,1.223166
407,893313683,-0.604414,0.807997,120.496078,-0.002673,-0.006726,0.515707,0.837708,0.378139,1.190677
408,893330350,-0.605080,0.808155,120.496819,-0.007895,-0.009946,0.509368,0.798841,0.442671,1.259703
409,893347017,-0.605174,0.808414,120.497841,-0.004371,-0.000407,0.530911,0.832906,0.448523,1.277901
410,893363684,-0.605758,0.809087,120.497131,-0.008898,-0.005248,0.513968,0.804949,0.474443,1.174259
411,893380351,-0.605645,0.808982,120.497185,-0.003644,0.007491,0.512849,0.846122,0.427341,1.219683
412,893397018,-0.606484,0.808921,120.497108,-0.005426,-0.000753,0.527798,0.789057,0.430031,1.212909
413,893413685,-0.607073,0.808158,120.497681,0.004314,0.006661,0.505811,0.803554,0.387527,1.251328
414,893430352,-0.608381,0.807706,120.500587,-0.003728,-0.012313,0.505476,0.761254,0.406813,1.191061
415,893447019,-0.610205,0.807016,120.504044,-0.010322,-0.000402,0.526248,0.728931,0.391535,1.285431
416,893463686,-0.609997,0.806531,120.505753,0.005050,0.007621,0.527523,0.851091,0.403919,1.273239
417,893480353,-0.611656,0.806498,120.509438,-0.013565,-0.006304,0.514910,0.739432,0.431388,1.250226
418,893497020,-0.612878,0.806944,120.512665,0.002844,-0.014075,0.506108,0.765199,0.459870,1.269858
419,893513687,-0.614021,0.806774,120.514046,-0.001243,-0.004646,0.524147,0.770027,0.422846,1.271779
420,893530354,-0.613822,0.806116,120.515373,0.002843,-0.005803,0.515003,0.851027,0.393981,1.230774
421,893547021,-0.614716,0.805034,120.515724,-0.008931,-0.011290,0.516033,0.785791,0.368778,1.207031
422,893563688,-0.615465,0.804581,120.516930,-0.005040,-0.002906,0.494028,0.794115,0.406211,1.238457
423,893580355,-0.616881,0.804707,120.519142,0.003264,0.004947,0.522638,0.753686,0.440698,1.268616
424,893597022,-0.615757,0.804893,120.521301,-0.018086,0.001845,0.515779,0.906581,0.444668,1.231209
425,893613689,-0.616299,0.803710,120.524574,0.001869,-0.008728,0.523561,0.806422,0.362388,1.243413
426,893630356,-0.616471,0.803398,120.526329,-0.005465,0.005309,0.530196,0.828039,0.414215,1.285213
427,893647023,-0.616595,0.803220,120.527176,-0.002180,0.007604,0.524276,0.832214,0.423205,1.193635
428,893663690,-0.616249,0.803253,120.527390,0.008029,-0.005424,0.534577,0.860363,0.435896,1.195505
429,893680357,-0.617331,0.802160,120.527771,-0.000566,-0.008395,0.526073,0.774752,0.368304,1.195569
430,893697024,-0.616795,0.802984,120.531670,-0.002520,-0.011495,0.535552,0.871030,0.482729,1.252339
431,893713691,-0.616775,0.803924,120.532501,-0.002623,-0.009189,0.504047,0.840398,0.489913,1.230543
432,893730358,-0.617594,0.804780,120.534042,-0.003790,-0.010729,0.536283,0.789595,0.484509,1.256668
433,893747025,-0.617262,0.805036,120.534836,-0.005052,-0.001207,0.507594,0.859940,0.449484,1.167741
434,893763692,-0.617754,0.804630,120.536942,0.001555,0.001933,0.519724,0.808971,0.408670,1.272548
435,893780359,-0.617620,0.803627,120.537804,-0.002285,-0.001009,0.513722,0.846532,0.372799,1.281602
436,893797026,-0.618061,0.803638,120.538116,-0.013526,-0.006417,0.510191,0.812749,0.434193,1.212845
437,893813693,-0.618856,0.804141,120.541389,-0.007085,0.000845,0.517643,0.790158,0.462687,1.319368
438,893830360,-0.618616,0.803665,120.543282,-0.002397,-0.006260,0.521193,0.853575,0.405020,1.226086
439,893847027,-0.618658,0.803816,120.542755,0.000614,-0.010450,0.542667,0.837260,0.443081,1.179868
440,893863694,-0.618804,0.803224,120.543732,0.012184,-0.004325,0.527891,0.829941,0.397650,1.257622
441,893880361,-0.618921,0.803957,120.546570,-0.003633,0.004199,0.521799,0.831382,0.476876,1.284496
442,893897028,-0.619417,0.803455,120.546928,-0.005721,0.007574,0.526476,0.809009,0.403073,1.253569
443,893913695,-0.619176,0.803018,120.549332,0.007991,-0.010748,0.525434,0.852448,0.406390,1.310237
444,893930362,-0.619328,0.802991,120.549873,-0.003611,-0.008182,0.513145,0.830152,0.432003,1.215009
445,893947029,-0.618829,0.802975,120.551735,-0.007019,-0.011335,0.529070,0.868469,0.432054,1.273918
446,893963696,-0.618032,0.802527,120.553520,-0.008002,0.002432,0.517710,0.886359,0.406121,1.266004
447,893980363,-0.617838,0.802552,120.556908,0.005573,0.002599,0.522680,0.849925,0.434295,1.290899
448,893997030,-0.616811,0.801595,120.557564,-0.008693,-0.005011,0.515542,0.901010,0.376206,1.210463
449,894013697,-0.616401,0.802143,120.558769,0.000564,0.000979,0.500124,0.863410,0.466209,1.244514
450,894030364,-0.616476,0.802046,120.559647,0.005023,0.010932,0.510327,0.834174,0.427303,1.256386
451,894047031,-0.615641,0.801991,120.561531,-0.005464,-0.015193,0.524327,0.889241,0.430210,1.226099
452,894063698,-0.615979,0.802390,120.562241,0.011287,-0.019985,0.504583,0.819100,0.457628,1.210514
453,894080365,-0.615927,0.801226,120.563194,-0.008309,0.000227,0.519357,0.841947,0.363387,1.244438
454,894097032,-0.615088,0.801434,120.564148,-0.011263,0.010527,0.528952,0.889164,0.445744,1.248395
455,894113699,-0.615415,0.801795,120.565384,-0.002461,-0.005746,0.535168,0.819421,0.455054,1.235025
456,894130366,-0.615092,0.801146,120.565941,-0.014400,0.004457,0.522061,0.858467,0.394429,1.232336
457,894147033,-0.615886,0.801328,120.566498,0.001993,0.012480,0.488929,0.791452,0.444451,1.224063
458,894163700,-0.615855,0.801333,120.566360,0.004908,0.000840,0.527566,0.841358,0.434065,1.197656
459,894180367,-0.615642,0.800858,120.567184,-0.011311,0.008006,0.497186,0.851654,0.404854,1.245322
460,894197034,-0.615658,0.800239,120.566376,0.000247,-0.004644,0.531997,0.838374,0.396555,1.209067
461,894213701,-0.616651,0.800574,120.567482,0.003825,0.004815,0.509120,0.779273,0.453300,1.256937
462,894230368,-0.616559,0.801186,120.567375,-0.005508,-0.004179,0.517812,0.845341,0.470793,1.181892
463,894247035,-0.616652,0.801279,120.568359,0.011200,-0.016817,0.515189,0.833008,0.438714,1.264006
464,894263702,-0.616189,0.801675,120.569397,0.017653,-0.005636,0.508390,0.866920,0.457206,1.229723
465,894280369,-0.615136,0.801905,120.570953,0.008109,-0.006736,0.532774,0.901394,0.446436,1.299556
466,894297036,-0.614430,0.801649,120.571449,-0.008748,-0.018396,0.533978,0.881916,0.418364,1.201050
467,894313703,-0.613976,0.802692,120.570724,0.011430,-0.010972,0.524098,0.866753,0.496214,1.204905
468,894330370,-0.614432,0.801436,120.570694,0.001764,-0.006244,0.513445,0.812275,0.358354,1.201267
469,894347037,-0.615039,0.800518,120.571693,-0.006967,0.004146,0.517043,0.802683,0.378268,1.232707
470,894363704,-0.614147,0.800181,120.572159,-0.007622,-0.007836,0.496606,0.892712,0.413242,1.221911
471,894380371,-0.613332,0.800258,120.573288,-0.002896,0.003157,0.529408,0.887794,0.437932,1.243772
472,894397038,-0.613128,0.800048,120.574326,-0.000509,-0.000585,0.529408,0.851180,0.420618,1.246269
473,894413705,-0.612163,0.798914,120.575882,0.011531,-0.003615,0.533457,0.896425,0.364898,1.273111
474,894430372,-0.612047,0.799144,120.576393,0.014197,0.001540,0.529322,0.846416,0.447358,1.215944
475,894447039,-0.612057,0.798706,120.576447,0.011463,-0.016210,0.527403,0.838912,0.407389,1.202459
476,894463706,-0.612370,0.798368,120.578819,0.002552,0.009501,0.522174,0.819549,0.412320,1.296047
477,894480373,-0.612180,0.798937,120.578629,-0.009575,-0.005598,0.537384,0.851155,0.467912,1.192790
478,894497040,-0.611415,0.799617,120.578362,0.001714,-0.002426,0.525385,0.885476,0.474456,1.197887
479,894513707,-0.611595,0.799060,120.579659,0.006606,-0.012954,0.524027,0.828276,0.399840,1.240116
480,894530374,-0.607765,0.808177,120.581528,0.009030,-0.003789,0.524153,0.843894,0.417660,1.220836
481,894547041,-0.607997,0.809428,120.581024,-0.005188,-0.013722,0.514657,0.824466,0.506805,1.252672
482,894563708,-0.608268,0.809605,120.581841,0.007223,-0.002462,0.533135,0.822225,0.442491,1.243477
483,894580375,-0.608647,0.809752,120.583122,0.008968,0.003770,0.501962,0.815412,0.440378,1.272253
484,894597042,-0.608838,0.810152,120.583618,-0.005811,-0.018662,0.496020,0.827271,0.455964,1.226829
485,894613709,-0.608921,0.809636,120.582222,0.002561,-0.006379,0.523472,0.835249,0.402203,1.118334
486,894630376,-0.609205,0.809408,120.582741,-0.000283,0.001474,0.503147,0.821419,0.418134,1.243464
487,894647043,-0.609297,0.809085,120.582481,0.002622,-0.002113,0.534775,0.833418,0.412755,1.212537
488,894663710,-0.609087,0.808846,120.582275,-0.005079,-0.008905,0.517785,0.851296,0.417609,1.226727
489,894680377,-0.609485,0.808496,120.581924,0.000709,-0.009415,0.505338,0.814990,0.411077,1.218915
490,894697044,-0.610106,0.810350,120.581879,0.007756,-0.010142,0.532247,0.801274,0.543047,1.240506
491,894713711,-0.609264,0.810667,120.578865,-0.005114,0.000476,0.510971,0.889958,0.451507,1.174413
492,894730378,-0.609236,0.809928,120.577141,0.003092,0.004016,0.519561,0.840295,0.387527,1.233501
493,894747045,-0.608986,0.808685,120.575203,0.009631,-0.002672,0.534348,0.853895,0.357508,1.213959
494,894763712,-0.608874,0.809002,120.573235,0.005531,0.011125,0.520469,0.845879,0.451200,1.196440
495,894780379,-0.608147,0.809199,120.569298,-0.005123,-0.003393,0.519994,0.883068,0.444233,1.181418
496,894797046,-0.608374,0.810244,120.568169,-0.009923,-0.000267,0.520769,0.824441,0.494075,1.276710
497,894813713,-0.608707,0.809275,120.566025,0.000009,0.004318,0.504847,0.819062,0.374029,1.204047
498,894830380,-0.609571,0.809356,120.564644,0.006089,0.006371,0.524247,0.786047,0.436127,1.287608
499,894847047,-0.609148,0.808880,120.562431,-0.002499,-0.003899,0.525077,0.864256,0.403573,1.212652
500,894863714,-0.609404,0.809120,120.559113,-0.013066,-0.012518,0.516955,0.824351,0.447076,1.151605
501,894880381,-0.609884,0.810166,120.557297,0.004742,-0.012433,0.497955,0.809637,0.494460,1.251020
502,894897048,-0.609354,0.811259,120.555138,0.008458,0.011032,0.499217,0.869916,0.497149,1.267387
503,894913715,-0.609582,0.811674,120.552803,0.003813,-0.014787,0.514999,0.825824,0.457372,1.172325
504,894930382,-0.609672,0.813061,120.550941,0.006411,0.005451,0.496720,0.834007,0.515564,1.178664
505,894947049,-0.609180,0.813571,120.549263,-0.006349,-0.005448,0.526330,0.868456,0.462610,1.217903
506,894963716,-0.609472,0.814195,120.548279,0.000690,-0.002049,0.526951,0.821419,0.469513,1.214561
507,894980383,-0.609789,0.814477,120.548195,-0.009921,-0.017923,0.522421,0.818934,0.448139,1.290016
508,894997050,-0.608745,0.813793,120.547157,-0.007059,-0.009322,0.507834,0.900805,0.390408,1.266913
509,895013717,-0.609599,0.814454,120.547035,-0.006205,0.004063,0.511917,0.787174,0.471254,1.250482
510,895030384,-0.610208,0.813937,120.547569,-0.001859,0.004131,0.515308,0.801274,0.400179,1.287531
511,895047051,-0.610496,0.812992,120.548302,0.006561,-0.004328,0.521747,0.820663,0.374605,1.279092
512,895063718,-0.609790,0.812141,120.547714,0.004512,0.002482,0.491441,0.881160,0.380880,1.223218
513,895080385,-0.609686,0.811655,120.546745,-0.002880,-0.011916,0.532107,0.844905,0.402651,1.230505
514,895097052,-0.609815,0.811979,120.546082,-0.003641,-0.023869,0.525186,0.831523,0.451750,1.192150
515,895113719,-0.609883,0.812342,120.546204,0.003225,-0.002980,0.531958,0.833853,0.452980,1.290605
516,895130386,-0.609770,0.812393,120.545364,0.005433,-0.005737,0.523891,0.845917,0.435243,1.200410
517,895147053,-0.609584,0.812129,120.545044,0.001853,-0.010708,0.523931,0.849989,0.416059,1.216571
518,895163720,-0.610033,0.811536,120.544464,-0.001057,0.006868,0.516153,0.812006,0.396440,1.208567
519,895180387,-0.610481,0.811680,120.542702,-0.007131,-0.000815,0.509036,0.812608,0.441019,1.174912
520,895197054,-0.610492,0.811754,120.541977,-0.021484,-0.013220,0.519063,0.837875,0.436165,1.234513
521,895213721,-0.612206,0.812248,120.541817,0.000592,0.009422,0.539781,0.735565,0.461253,1.250367
522,895230388,-0.612205,0.811970,120.541779,-0.015481,0.009458,0.540898,0.838669,0.415111,1.239456
523,895247055,-0.612023,0.811483,120.541527,0.006644,0.000471,0.508693,0.848799,0.402036,1.283446
524,895263722,-0.611791,0.811152,120.540970,0.003186,-0.004572,0.523660,0.852832,0.412204,1.212076
525,895280389,-0.610925,0.811889,120.540123,-0.006584,0.007816,0.538318,0.890662,0.476018,1.228596
526,895297056,-0.610690,0.811864,120.539154,0.002207,-0.004330,0.521132,0.852551,0.430172,1.246884
527,895313723,-0.611706,0.811405,120.538391,-0.012699,0.004711,0.505265,0.777115,0.403861,1.270300
528,895330390,-0.612352,0.810921,120.536598,-0.008350,0.007447,0.517654,0.799712,0.402753,1.235281
529,895347057,-0.612013,0.810925,120.536354,0.000865,-0.005283,0.531735,0.859056,0.432118,1.225049
530,895363724,-0.611819,0.810778,120.533890,0.003843,-0.016293,0.522451,0.850540,0.423179,1.216110
531,895380391,-0.612017,0.811315,120.533211,-0.002737,-0.002665,0.514377,0.827207,0.464429,1.201024
532,895397058,-0.611345,0.810569,120.530617,-0.015167,-0.010822,0.517861,0.878983,0.387078,1.229762
533,895413725,-0.611056,0.810542,120.531532,-0.010636,-0.022638,0.527103,0.855061,0.429493,1.297187
534,895430392,-0.610550,0.811020,120.531845,-0.003206,0.001639,0.508340,0.868597,0.460228,1.260996
535,895447059,-0.609943,0.810234,120.532349,-0.000752,-0.003098,0.521314,0.874437,0.384287,1.270345
536,895463726,-0.610201,0.810858,120.533348,-0.011578,0.002247,0.515947,0.822110,0.468476,1.302297
537,895480393,-0.609747,0.810554,120.533127,-0.002460,-0.001445,0.515263,0.865895,0.413587,1.226804
538,895497060,-0.609660,0.810646,120.532761,-0.012362,0.001420,0.504328,0.843945,0.437446,1.218198
539,895513727,-0.610123,0.811211,120.532349,-0.003217,0.012434,0.497972,0.810994,0.465901,1.217019
540,895530394,-0.609916,0.810923,120.531807,-0.011215,-0.000982,0.513057,0.851302,0.414836,1.208689
541,895547061,-0.609802,0.811693,120.531998,-0.003936,-0.012807,0.531457,0.845123,0.477850,1.253722
542,895563728,-0.609729,0.811751,120.531860,0.005625,-0.010354,0.515233,0.842895,0.435256,1.232784
543,895580395,-0.609280,0.812872,120.532639,-0.005914,-0.009315,0.516562,0.864742,0.498506,1.287800
544,895597062,-0.609084,0.812370,120.531418,-0.001560,0.001946,0.525629,0.851232,0.402395,1.167228
545,895613729,-0.609275,0.812593,120.531502,-0.002698,-0.008037,0.520022,0.826925,0.445091,1.247524
546,895630396,-0.610018,0.811478,120.531670,0.001274,0.002835,0.517730,0.793706,0.364782,1.249855
547,895647063,-0.609294,0.811853,120.532913,-0.002802,-0.011719,0.517045,0.880840,0.453466,1.315846
548,895663730,-0.610334,0.812597,120.532501,0.003865,-0.016323,0.509036,0.776423,0.476601,1.216783
549,895680397,-0.609696,0.812758,120.533691,-0.013020,0.010363,0.499074,0.875653,0.440558,1.312913
550,895697064,-0.609637,0.812101,120.532799,-0.015040,-0.006145,0.518597,0.842575,0.392841,1.187283
551,895713731,-0.609807,0.812349,120.532158,0.003567,-0.001313,0.532140,0.828731,0.446897,1.202395
552,895730398,-0.609749,0.813088,120.531677,-0.009847,-0.014413,0.527855,0.842216,0.476364,1.213062
553,895747065,-0.609753,0.814639,120.531929,0.003905,0.013290,0.511717,0.837900,0.524606,1.257564
554,895763732,-0.610213,0.814842,120.531868,-0.008529,-0.001820,0.514781,0.810789,0.443887,1.238163
555,895780399,-0.610462,0.815225,120.531609,-0.005818,-0.005157,0.511750,0.823660,0.454862,1.225177
556,895797066,-0.610197,0.815155,120.531448,0.001979,0.002700,0.524948,0.854420,0.427623,1.231107
557,895813733,-0.609109,0.814831,120.530327,0.000898,0.000556,0.520062,0.904647,0.412934,1.174131
558,895830400,-0.608831,0.814476,120.530762,-0.000038,0.011677,0.532605,0.854677,0.410117,1.266721
559,895847067,-0.607731,0.814675,120.530876,-0.011312,-0.004265,0.518480,0.904365,0.443695,1.247716
560,895863734,-0.608142,0.814164,120.530823,-0.005298,0.005951,0.513684,0.813748,0.401076,1.238368
561,895880401,-0.608400,0.813750,120.530098,-0.010715,-0.001078,0.502711,0.823532,0.407364,1.196273
562,895897068,-0.608657,0.812915,120.529724,0.003630,-0.005253,0.520070,0.823224,0.381879,1.218313
563,895913735,-0.608210,0.813670,120.528923,0.005398,-0.007629,0.537122,0.865920,0.477453,1.193405
564,895930402,-0.607450,0.814133,120.529099,-0.005245,0.011236,0.510409,0.883760,0.459383,1.252659
565,895947069,-0.607302,0.813771,120.528252,0.000772,-0.005559,0.514533,0.848107,0.410642,1.190741
566,895963736,-0.607558,0.814030,120.528961,-0.008905,-0.004447,0.505051,0.822392,0.446833,1.283587
567,895980403,-0.606822,0.812497,120.527802,-0.001173,0.002500,0.511571,0.883478,0.340566,1.171211
568,895997070,-0.607219,0.812303,120.528267,-0.015383,-0.011099,0.516683,0.814183,0.419824,1.269346
569,896013737,-0.607602,0.813101,120.527748,0.003631,0.000728,0.522627,0.815809,0.479860,1.211026
570,896030404,-0.607604,0.813212,120.528320,-0.009832,0.008229,0.522729,0.837836,0.438060,1.276748
571,896047071,-0.608281,0.813008,120.528610,-0.001579,0.008526,0.519691,0.797560,0.419248,1.259152
572,896063738,-0.608612,0.812912,120.528671,-0.008778,0.002036,0.515534,0.818383,0.425894,1.245706
573,896080405,-0.610673,0.812834,120.527420,-0.019210,-0.008556,0.513700,0.715830,0.427982,1.166217
574,896097072,-0.611860,0.813192,120.526993,-0.014034,-0.013382,0.524829,0.767517,0.453492,1.214842
575,896113739,-0.612622,0.813140,120.526215,-0.014449,-0.011981,0.522134,0.793321,0.429134,1.195415
576,896130406,-0.612089,0.813455,120.526299,-0.012323,0.003148,0.508867,0.870211,0.450572,1.246308