PacketCounter,SampleTimeFine,Quat_W,Quat_X,Quat_Y,Quat_Z,dq_W,dq_X,dq_Y,dq_Z,dv[1],dv[2],dv[3],Acc_X,Acc_Y,Acc_Z,Gyr_X,Gyr_Y,Gyr_Z,Mag_X,Mag_Y,Mag_Z,Status,
0, 340557343, 0.016917170956730843, 0.6780677437782288, -0.06387843936681747, 0.715954065322876, 0, 0, 0, 0, 0, 0, 0, 0, 0, 0, 0, 0, 0, -0.841796875, -0.416015625, -0.072021484375, 0, 
1, 340565676, 0.01678996905684471, 0.6781036853790283, -0.06383505463600159, 0.7159269452095032, 1, 0.00011896248906850815, -0.000052696093916893005, 0.00006032269448041916, 0.08251804113388062, -0.0059160590171813965, 0.0040495991706848145, 9.902535438537598, -0.710737407207489, 0.4853377044200897, 1.6359171867370605, -0.7246522903442383, 0.8295298218727112, -0.84228515625, -0.42236328125, -0.074951171875, 0, 
2, 340574009, 0.01666790246963501, 0.6781331300735474, -0.06377802044153214, 0.7159069776535034, 1, 0.0001257592812180519, -0.00004244968295097351, 0.000047682784497737885, 0.08241099119186401, -0.005711495876312256, 0.0038591623306274414, 9.889695167541504, -0.6860262751579285, 0.46261823177337646, 1.7293834686279297, -0.5837483406066895, 0.6557115912437439, -0.84375, -0.41796875, -0.073486328125, 0, 
3, 340582342, 0.0166219063103199, 0.686207115650177, -0.06454296410083771, 0.7243465185165405, 1, 0.00013219844549894333, -0.000031966716051101685, 0.00003623124212026596, 0.08274656534194946, -0.005611717700958252, 0.0038686394691467285, 9.929969787597656, -0.673882007598877, 0.4639118015766144, 1.817931890487671, -0.43959149718284607, 0.4982352554798126, -0.841796875, -0.41796875, -0.072998046875, 0, 
4, 340590675, 0.01650654524564743, 0.6862322092056274, -0.06446715444326401, 0.7243321537971497, 1, 0.00013350602239370346, -0.00003423728048801422, 0.000029676593840122223, 0.08291405439376831, -0.0055411458015441895, 0.003483116626739502, 9.95007610321045, -0.6653231978416443, 0.41761311888694763, 1.835913062095642, -0.4708152413368225, 0.4080987870693207, -0.845703125, -0.418701171875, -0.074951171875, 0, 
5, 340599008, 0.016365790739655495, 0.6865158081054688, -0.06412158161401749, 0.7240972518920898, 1, 0.00012981239706277847, -0.00001625344157218933, 0.000008680857717990875, 0.08288359642028809, -0.00543820858001709, 0.0034940242767333984, 9.946430206298828, -0.652666449546814, 0.41916629672050476, 1.7851200103759766, -0.22350983321666718, 0.11937513947486877, -0.84521484375, -0.416748046875, -0.073974609375, 0, 
6, 340607341, 0.016276855021715164, 0.6865143775939941, -0.06404534727334976, 0.7241073846817017, 1, 0.00011694710701704025, 0.0000035436823964118958, 0.000012361444532871246, 0.08286863565444946, -0.00530087947845459, 0.0037671327590942383, 9.944633483886719, -0.6361309289932251, 0.45207399129867554, 1.6082024574279785, 0.04873107746243477, 0.16998885571956635, -0.84375, -0.420654296875, -0.074462890625, 0, 
7, 340615674, 0.016489539295434952, 0.6869905591011047, -0.06379849463701248, 0.7236725091934204, 1, 0.00011564511805772781, 0.000027400441467761993, 0.000024734996259212494, 0.08244138956069946, -0.005118429660797119, 0.0038450956344604492, 9.893362045288086, -0.6142363548278809, 0.46142977476119995, 1.5902982950210571, 0.37679824233055115, 0.3401442766189575, -0.84326171875, -0.41845703125, -0.074462890625, 0, 
8, 340624007, 0.016394013538956642, 0.6869574189186096, -0.06374288350343704, 0.7237110137939453, 1, 0.00010778848081827164, 0.00004529301077127457, 0.00003365706652402878, 0.08230340480804443, -0.005045950412750244, 0.0035454630851745605, 9.876802444458008, -0.6055382490158081, 0.42547255754470825, 1.4822571277618408, 0.6228485107421875, 0.4628364145755768, -0.84521484375, -0.421142578125, -0.072509765625, 0, 
9, 340632340, 0.016840629279613495, 0.6872142553329468, -0.0635330080986023, 0.723475456237793, 1, 0.00010457169264554977, 0.0000539952889084816, 0.000031142495572566986, 0.0819215178489685, -0.005034148693084717, 0.003966152667999268, 9.830974578857422, -0.6041219830513, 0.47595733404159546, 1.4380214214324951, 0.7425181865692139, 0.42825719714164734, -0.84326171875, -0.419921875, -0.074951171875, 0, 
10, 340640673, 0.016755560413002968, 0.6871827840805054, -0.06347814947366714, 0.7235121726989746, 1, 0.00009991880506277084, 0.000043499283492565155, 0.000026508234441280365, 0.08176809549331665, -0.005144476890563965, 0.004174709320068359, 9.812562942504883, -0.6173619031906128, 0.5009851455688477, 1.3740371465682983, 0.598181962966919, 0.36452895402908325, -0.84326171875, -0.4189453125, -0.071533203125, 0, 
11, 340649006, 0.017268674448132515, 0.6873508095741272, -0.06331890821456909, 0.7233543395996094, 1, 0.00009668897837400436, 0.000023704953491687775, 0.000021412037312984467, 0.0818282961845398, -0.005437910556793213, 0.004198968410491943, 9.819787979125977, -0.6525751352310181, 0.5038963556289673, 1.3296220302581787, 0.3259795606136322, 0.2944484055042267, -0.84326171875, -0.4169921875, -0.072509765625, 0, 
12, 340657339, 0.017193542793393135, 0.6873518824577332, -0.06326265633106232, 0.7233600616455078, 1, 0.00009274203330278397, -6.202608346939087e-7, 0.000015729106962680817, 0.08182775974273682, -0.0054718852043151855, 0.0039904117584228516, 9.819723129272461, -0.6566524505615234, 0.4788685441017151, 1.2753456830978394, -0.00852954015135765, 0.2162993997335434, -0.8447265625, -0.417236328125, -0.074462890625, 0, 
13, 340665672, 0.01744278334081173, 0.6874029636383057, -0.06302375346422195, 0.7233263254165649, 1, 0.00008820276707410812, -0.00001887977123260498, 0.0000013345852494239807, 0.08198016881942749, -0.005518734455108643, 0.004266142845153809, 9.8380126953125, -0.6622745990753174, 0.511957585811615, 1.212923526763916, -0.2596258819103241, 0.018352597951889038, -0.845703125, -0.417724609375, -0.077392578125, 0, 
14, 340674005, 0.017384659498929977, 0.6874300837516785, -0.0629672110080719, 0.7233068943023682, 1, 0.00008008722215890884, -0.000035684555768966675, 0.0000011259689927101135, 0.08187335729598999, -0.005686342716217041, 0.004157841205596924, 9.8251953125, -0.6823881268501282, 0.498960942029953, 1.1013224124908447, -0.49071750044822693, 0.015483805909752846, -0.84326171875, -0.42236328125, -0.072509765625, 0, 
15, 340682338, 0.01782926358282566, 0.6874077320098877, -0.06309547275304794, 0.7233061790466309, 1, 0.0000846153125166893, -0.00003510899841785431, -0.000007813796401023865, 0.08204114437103271, -0.00588458776473999, 0.004092514514923096, 9.845330238342285, -0.7061790227890015, 0.49112120270729065, 1.163590669631958, -0.48280274868011475, -0.10745172202587128, -0.8447265625, -0.417724609375, -0.073974609375, 0, 
16, 340690671, 0.01776447333395481, 0.6874323487281799, -0.06302125751972198, 0.7232908010482788, 1, 0.0000977320596575737, -0.00003117695450782776, -0.000006034970283508301, 0.0821179747581482, -0.005776345729827881, 0.003949940204620361, 9.8545503616333, -0.693189263343811, 0.4740116596221924, 1.343966007232666, -0.4287310540676117, -0.0829901173710823, -0.84716796875, -0.420166015625, -0.074951171875, 0, 
17, 340699004, 0.017877191305160522, 0.6874016523361206, -0.06301834434270859, 0.7233175039291382, 1, 0.00010190252214670181, -0.000035103410482406616, -0.0000011418014764785767, 0.0821184515953064, -0.005561172962188721, 0.0038840174674987793, 9.854607582092285, -0.6673675775527954, 0.46610063314437866, 1.4013162851333618, -0.4827258586883545, -0.015701526775956154, -0.84326171875, -0.4189453125, -0.072509765625, 0, 
18, 340707337, 0.01779300905764103, 0.6874273419380188, -0.06294457614421844, 0.7233015298843384, 1, 0.00011072959750890732, -0.00003353878855705261, 0.000008271075785160065, 0.08231723308563232, -0.005468785762786865, 0.003909468650817871, 9.878462791442871, -0.6562803387641907, 0.4691549837589264, 1.5227020978927612, -0.46120986342430115, 0.11374000459909439, -0.841796875, -0.42138671875, -0.074951171875, 0, 
19, 340715670, 0.017751073464751244, 0.6874160766601562, -0.06289663910865784, 0.7233175039291382, 1, 0.00011895503848791122, -0.000036016106605529785, 0.00002210307866334915, 0.0824241042137146, -0.005606353282928467, 0.003966808319091797, 9.891292572021484, -0.6730923652648926, 0.4755195379257202, 1.6358146667480469, -0.4952768087387085, 0.30395132303237915, -0.8447265625, -0.419677734375, -0.071044921875, 0, 
20, 340724003, 0.01764223538339138, 0.6874369978904724, -0.06282045692205429, 0.7233069539070129, 1, 0.00012957211583852768, -0.00002790801227092743, 0.0000249398872256279, 0.08248478174209595, -0.005899250507354736, 0.003933072090148926, 9.89856243133545, -0.7082427144050598, 0.4716852605342865, 1.781816005706787, -0.3837781250476837, 0.3429618179798126, -0.84326171875, -0.41845703125, -0.073486328125, 0, 
21, 340732336, 0.017488965764641762, 0.6874375343322754, -0.06267881393432617, 0.7233224511146545, 1, 0.0001530507579445839, -0.0000317450612783432, 0.00002112891525030136, 0.08251535892486572, -0.005977153778076172, 0.004235386848449707, 9.902239799499512, -0.7174445986747742, 0.5080217123031616, 2.1046831607818604, -0.43654337525367737, 0.29055505990982056, -0.84765625, -0.421630859375, -0.072021484375, 0, 
22, 340740669, 0.017352275550365448, 0.6874609589576721, -0.06257288157939911, 0.7233126163482666, 1, 0.0001703379675745964, -0.000030435621738433838, 0.0000243382528424263, 0.08260679244995117, -0.005980491638183594, 0.00403362512588501, 9.9132080078125, -0.7178427577018738, 0.4838792085647583, 2.342409133911133, -0.41853660345077515, 0.3346884250640869, -0.845703125, -0.416259765625, -0.072021484375, 0, 
23, 340749002, 0.017207875847816467, 0.6874498128890991, -0.06248251348733902, 0.7233343124389648, 1, 0.0001854756847023964, -0.000029282644391059875, 0.000013719312846660614, 0.08277469873428345, -0.005967974662780762, 0.004060924053192139, 9.933363914489746, -0.716224193572998, 0.48719748854637146, 2.5505759716033936, -0.4026813805103302, 0.18866166472434998, -0.841796875, -0.42138671875, -0.074462890625, 0, 
24, 340757335, 0.01707109995186329, 0.6874748468399048, -0.06236382946372032, 0.7233240604400635, 1, 0.00017963256686925888, -0.000031657516956329346, 0.00001551862806081772, 0.082835853099823, -0.005907714366912842, 0.004057943820953369, 9.940703392028809, -0.7090135812759399, 0.48680612444877625, 2.470224142074585, -0.4353395104408264, 0.21340502798557281, -0.8427734375, -0.4208984375, -0.073974609375, 0, 
25, 340765668, 0.017077501863241196, 0.6874451041221619, -0.062448300421237946, 0.7233448624610901, 1, 0.00017737317830324173, -0.000023558735847473145, 0.000012393109500408173, 0.083049476146698, -0.005819141864776611, 0.0037946105003356934, 9.966337203979492, -0.6983646154403687, 0.4552687108516693, 2.4391536712646484, -0.3239688277244568, 0.17042429745197296, -0.84228515625, -0.41845703125, -0.071533203125, 0, 
26, 340774001, 0.016961272805929184, 0.6874576210975647, -0.06232777610421181, 0.7233461141586304, 1, 0.00016735773533582687, -0.000013342127203941345, 4.423782229423523e-7, 0.08286696672439575, -0.005452454090118408, 0.003943145275115967, 9.944439888000488, -0.6542415022850037, 0.47317183017730713, 2.3014261722564697, -0.18347476422786713, 0.006083381362259388, -0.8447265625, -0.420166015625, -0.072021484375, 0, 
27, 340782334, 0.01685258187353611, 0.6874433159828186, -0.06227974593639374, 0.7233665585517883, 1, 0.00016258563846349716, -0.00001623481512069702, -0.000009678304195404053, 0.08279120922088623, -0.005236327648162842, 0.004109203815460205, 9.935357093811035, -0.6281883120536804, 0.49305835366249084, 2.23580265045166, -0.22325366735458374, -0.13309156894683838, -0.8427734375, -0.421875, -0.072509765625, 0, 
28, 340790667, 0.01674588955938816, 0.6874637603759766, -0.06216875836253166, 0.7233591675758362, 1, 0.0001535257324576378, -0.000024663284420967102, -5.830079317092896e-7, 0.08276033401489258, -0.005540311336517334, 0.0038663744926452637, 9.931652069091797, -0.6647689938545227, 0.4638073742389679, 2.1112148761749268, -0.3391580879688263, -0.008017255924642086, -0.8427734375, -0.42138671875, -0.073974609375, 0, 
29, 340799000, 0.01669498160481453, 0.6874462962150574, -0.062160998582839966, 0.7233774662017822, 1, 0.0001544887199997902, -0.000014981254935264587, 0.000005696900188922882, 0.08271503448486328, -0.0053098201751708984, 0.003892660140991211, 9.926204681396484, -0.6371846199035645, 0.46707579493522644, 2.124457359313965, -0.20601528882980347, 0.07834113389253616, -0.84228515625, -0.41748046875, -0.070556640625, 0, 
30, 340807333, 0.016560165211558342, 0.6874606013298035, -0.062054820358753204, 0.7233761548995972, 1, 0.00016963575035333633, -0.000017898157238960266, 0.000023703090846538544, 0.08280658721923828, -0.005370914936065674, 0.003861665725708008, 9.937180519104004, -0.6446932554244995, 0.4633495807647705, 2.332752227783203, -0.2461271733045578, 0.32595396041870117, -0.84326171875, -0.418212890625, -0.076904296875, 0, 
31, 340815666, 0.01642869971692562, 0.6874496340751648, -0.061986297369003296, 0.7233954668045044, 1, 0.0001719081774353981, -0.00000916607677936554, 0.000031531788408756256, 0.08291369676589966, -0.00511324405670166, 0.003995656967163086, 9.95002555847168, -0.6138388514518738, 0.47951191663742065, 2.364002227783203, -0.12604765594005585, 0.43361061811447144, -0.8447265625, -0.419189453125, -0.072021484375, 0, 
32, 340823999, 0.016283661127090454, 0.6874476671218872, -0.06189402565360069, 0.723408579826355, 1, 0.00016727391630411148, 0.000002921558916568756, 0.00004185270518064499, 0.08268463611602783, -0.005116403102874756, 0.004041910171508789, 9.922525405883789, -0.6143278479576111, 0.48518046736717224, 2.3002734184265137, 0.04017592594027519, 0.5755389928817749, -0.84423828125, -0.419189453125, -0.074462890625, 0, 
33, 340832332, 0.016186174005270004, 0.6874251961708069, -0.06184816733002663, 0.7234359979629517, 1, 0.00016370322555303574, 0.000008528120815753937, 0.00004206877201795578, 0.08263826370239258, -0.005228817462921143, 0.004029810428619385, 9.916955947875977, -0.6278348565101624, 0.4837915301322937, 2.251171112060547, 0.11727477610111237, 0.5785102844238281, -0.84716796875, -0.421142578125, -0.074951171875, 0, 
34, 340840665, 0.01605759561061859, 0.6874173283576965, -0.06176183745265007, 0.72345370054245, 1, 0.00015189964324235916, 0.000011363066732883453, 0.00003443378955125809, 0.08239346742630005, -0.0053552985191345215, 0.0041106343269348145, 9.887577056884766, -0.6429858207702637, 0.4935525953769684, 2.088853597640991, 0.15625962615013123, 0.4735175371170044, -0.84521484375, -0.421630859375, -0.071533203125, 0, 
35, 340848998, 0.016150161623954773, 0.687380850315094, -0.061860792338848114, 0.7234779000282288, 1, 0.00013830605894327164, 0.00001063477247953415, 0.000029317103326320648, 0.08228576183319092, -0.005634725093841553, 0.004071176052093506, 9.874648094177246, -0.6765230894088745, 0.4888550043106079, 1.901921033859253, 0.14624448120594025, 0.40315529704093933, -0.84521484375, -0.423583984375, -0.070556640625, 0, 
36, 340857331, 0.016047535464167595, 0.6873744130134583, -0.06178700551390648, 0.7234926819801331, 1, 0.0001247124746441841, 0.000009668059647083282, 0.00002420414239168167, 0.08205640316009521, -0.0056234002113342285, 0.004013538360595703, 9.847123146057129, -0.6751623153686523, 0.4819730222225189, 1.7149882316589355, 0.13295069336891174, 0.33284416794776917, -0.84716796875, -0.418212890625, -0.074462890625, 0, 
37, 340865664, 0.016085181385278702, 0.6873494982719421, -0.061800144612789154, 0.723514199256897, 1, 0.00011563766747713089, 0.000004558824002742767, 0.0000027762725949287415, 0.08202576637268066, -0.005444467067718506, 0.003892660140991211, 9.843484878540039, -0.6533621549606323, 0.46713787317276, 1.590195655822754, 0.0626908391714096, 0.03817801550030708, -0.84423828125, -0.418701171875, -0.073974609375, 0, 
38, 340873997, 0.016019973903894424, 0.6873590350151062, -0.06170959025621414, 0.7235143780708313, 1, 0.00011048931628465652, -0.000009359791874885559, -0.00001562759280204773, 0.08210235834121704, -0.005169808864593506, 0.00386124849319458, 9.852676391601562, -0.6204018592834473, 0.46336832642555237, 1.5193978548049927, -0.1287115216255188, -0.21490341424942017, -0.8447265625, -0.417724609375, -0.074462890625, 0, 
39, 340882330, 0.01600252464413643, 0.6873443722724915, -0.061630867421627045, 0.7235352396965027, 1, 0.00010036211460828781, 0.000005240552127361298, -0.000028694048523902893, 0.08233171701431274, -0.005044281482696533, 0.003905057907104492, 9.880200386047363, -0.6053377985954285, 0.46862542629241943, 1.3801333904266357, 0.07206564396619797, -0.3945872485637665, -0.84765625, -0.418701171875, -0.071533203125, 0, 
40, 340890663, 0.015948936343193054, 0.6873461008071899, -0.0615486316382885, 0.7235417366027832, 1, 0.00009678956121206284, 0.0000011315569281578064, -0.000017819926142692566, 0.0824543833732605, -0.0049307942390441895, 0.004027664661407471, 9.89492130279541, -0.5917189121246338, 0.4833390712738037, 1.331005334854126, 0.015560646541416645, -0.2450513392686844, -0.84375, -0.4189453125, -0.071533203125, 0, 
41, 340898996, 0.016000928357243538, 0.6873279213905334, -0.06154046207666397, 0.7235586643218994, 1, 0.00007915031164884567, 0.000006872229278087616, -0.00001736357808113098, 0.08250004053115845, -0.004944860935211182, 0.0038000941276550293, 9.900400161743164, -0.5934069752693176, 0.4560295045375824, 1.0884385108947754, 0.09450371563434601, -0.23877589404582977, -0.8447265625, -0.420166015625, -0.072998046875, 0, 
42, 340907329, 0.015962356701493263, 0.6873206496238708, -0.06148970499634743, 0.723570704460144, 1, 0.00006390083581209183, 0.000012070871889591217, -0.000006299465894699097, 0.08253061771392822, -0.0050620436668396, 0.0039406418800354, 9.904069900512695, -0.6074694991111755, 0.47289592027664185, 0.8787347674369812, 0.16599304974079132, -0.08662733435630798, -0.84423828125, -0.422119140625, -0.071044921875, 0, 
43, 340915662, 0.016041917726397514, 0.6872917413711548, -0.06152695044875145, 0.7235932350158691, 1, 0.00005473475903272629, 0.000020257197320461273, 0.000006294809281826019, 0.08242416381835938, -0.004831492900848389, 0.003940761089324951, 9.891294479370117, -0.5798022747039795, 0.47291022539138794, 0.7526870965957642, 0.2785676121711731, 0.08656331151723862, -0.84423828125, -0.41650390625, -0.073974609375, 0, 
44, 340923995, 0.016002289950847626, 0.6872738003730774, -0.06150168925523758, 0.7236133217811584, 1, 0.000046514905989170074, 0.000024828128516674042, 0.000012828968465328217, 0.08245432376861572, -0.004938781261444092, 0.003961145877838135, 9.894913673400879, -0.5926774144172668, 0.47535648941993713, 0.6396514177322388, 0.34142497181892395, 0.17641805112361908, -0.84375, -0.419921875, -0.071044921875, 0, 
45, 340932328, 0.01618207059800625, 0.6872417330741882, -0.06165890395641327, 0.723626434803009, 1, 0.000034115277230739594, 0.000013017095625400543, 0.000030186958611011505, 0.08242309093475342, -0.005155682563781738, 0.0038307905197143555, 9.891166687011719, -0.6187068819999695, 0.4597127139568329, 0.4691375195980072, 0.17900508642196655, 0.41511714458465576, -0.84423828125, -0.419677734375, -0.073486328125, 0, 
46, 340940661, 0.016130469739437103, 0.6872270703315735, -0.06165957450866699, 0.7236415147781372, 1, 0.000035791657865047455, 0.000017714686691761017, 0.00003897864371538162, 0.08236175775527954, -0.005097329616546631, 0.004000425338745117, 9.883805274963379, -0.6117039918899536, 0.48007020354270935, 0.49219033122062683, 0.2436041682958603, 0.5360162258148193, -0.8427734375, -0.41943359375, -0.072509765625, 0, 
47, 340948994, 0.0162337776273489, 0.6872061491012573, -0.06174885481595993, 0.7236513495445251, 1, 0.00002576969563961029, 0.000008769333362579346, 0.00003617629408836365, 0.08239161968231201, -0.005254089832305908, 0.004173398017883301, 9.887389183044434, -0.6305159330368042, 0.5008277297019958, 0.35437288880348206, 0.12059180438518524, 0.4974796175956726, -0.84423828125, -0.421142578125, -0.074951171875, 0, 
48, 340957327, 0.0162099190056324, 0.6872029304504395, -0.06175389885902405, 0.723654568195343, 1, 0.000013121403753757477, 0.000002969987690448761, 0.000021074898540973663, 0.08254355192184448, -0.005352795124053955, 0.004084527492523193, 9.905621528625488, -0.6423611640930176, 0.49016258120536804, 0.18043948709964752, 0.04084189608693123, 0.28981223702430725, -0.84423828125, -0.418701171875, -0.072509765625, 0, 
49, 340965660, 0.01631402224302292, 0.6871843338012695, -0.06180994212627411, 0.7236650586128235, 1, 0.000013719312846660614, 0.000009466893970966339, 0.000011020340025424957, 0.08243614435195923, -0.005419611930847168, 0.0038570761680603027, 9.892732620239258, -0.6503794193267822, 0.4628676176071167, 0.18866164982318878, 0.1301843374967575, 0.15154659748077393, -0.845703125, -0.421630859375, -0.072998046875, 0, 
50, 340973993, 0.016294732689857483, 0.6871775388717651, -0.06180800125002861, 0.7236721515655518, 1, 0.000015149824321269989, 0.000008524395525455475, 0.000013175420463085175, 0.08255797624588013, -0.00554126501083374, 0.004058480262756348, 9.907352447509766, -0.6649783253669739, 0.4870370626449585, 0.208333358168602, 0.11722353845834732, 0.18118226528167725, -0.8447265625, -0.421142578125, -0.074951171875, 0, 
51, 340982326, 0.016375446692109108, 0.6871666312217712, -0.06182897463440895, 0.7236788868904114, 1, 0.000008464790880680084, 0.0000045066699385643005, -0.0000019390136003494263, 0.08271044492721558, -0.005393385887145996, 0.00385969877243042, 9.925649642944336, -0.647232174873352, 0.46318235993385315, 0.11640387028455734, 0.06197364255785942, -0.02666441723704338, -0.8486328125, -0.418701171875, -0.075927734375, 0, 
52, 340990659, 0.01637965627014637, 0.6871694922447205, -0.06182371452450752, 0.7236765027046204, 1, 0.000001062639057636261, -0.000003380700945854187, -0.000006776303052902222, 0.0827561616897583, -0.005513191223144531, 0.004029810428619385, 9.931136131286621, -0.6616093516349792, 0.4835965633392334, 0.01461291965097189, -0.046489834785461426, -0.09318458288908005, -0.84423828125, -0.418701171875, -0.074462890625, 0, 
53, 340998992, 0.016384350135922432, 0.6871674060821533, -0.061795007437467575, 0.7236807942390442, 1, 0.000014661811292171478, -7.878988981246948e-7, 0.000010604970157146454, 0.0826495885848999, -0.005480825901031494, 0.004074811935424805, 9.918346405029297, -0.6577253937721252, 0.48899662494659424, 0.20162244141101837, -0.010834821499884129, 0.14583462476730347, -0.83935546875, -0.42138671875, -0.071044921875, 0, 
54, 341007325, 0.016361236572265625, 0.6871644258499146, -0.06180250272154808, 0.7236834764480591, 1, 0.000010973773896694183, 0.0000025024637579917908, 0.000022270716726779938, 0.08242076635360718, -0.005375027656555176, 0.004088997840881348, 9.890887260437012, -0.6450290083885193, 0.4906995892524719, 0.1509062498807907, 0.034412726759910583, 0.30625662207603455, -0.8427734375, -0.422119140625, -0.075927734375, 0, 
55, 341015658, 0.016210192814469337, 0.6871697902679443, -0.061650414019823074, 0.7236947417259216, 1, 0.000005255453288555145, 0.000004787929356098175, 0.000024643726646900177, 0.08245092630386353, -0.005320310592651367, 0.0038599371910095215, 9.894506454467773, -0.6384627819061279, 0.46321097016334534, 0.07227055728435516, 0.06584138423204422, 0.33888909220695496, -0.845703125, -0.417724609375, -0.074462890625, 0, 
56, 341023991, 0.01617800071835518, 0.6871662735939026, -0.06166016310453415, 0.7236980199813843, 1, 0.000015511177480220795, 0.0000025453045964241028, 0.0000303732231259346, 0.08242005109786987, -0.005474686622619629, 0.004045724868774414, 9.890801429748535, -0.6569886207580566, 0.4855063557624817, 0.21330252289772034, 0.03500184789299965, 0.41767850518226624, -0.84375, -0.418701171875, -0.074462890625, 0, 
57, 341032324, 0.016147831454873085, 0.6871597766876221, -0.06164204701781273, 0.7237063646316528, 1, 0.0000018039718270301819, 0.0000054603442549705505, 0.000037039630115032196, 0.08237379789352417, -0.00546640157699585, 0.003863036632537842, 9.885249137878418, -0.6559942960739136, 0.46358293294906616, 0.024807387962937355, 0.07508813589811325, 0.509351909160614, -0.84765625, -0.423095703125, -0.072998046875, 0, 
58, 341040657, 0.016127455979585648, 0.6871520280838013, -0.0616750493645668, 0.723711371421814, 1, -0.00000939890742301941, 0.000007147900760173798, 0.000038106925785541534, 0.08212894201278687, -0.005622744560241699, 0.004018545150756836, 9.855866432189941, -0.6747562885284424, 0.48224467039108276, -0.1292494237422943, 0.09829462319612503, 0.5240288376808167, -0.84326171875, -0.41845703125, -0.075927734375, 0, 
59, 341048990, 0.0161712858825922, 0.6871392130851746, -0.061711836606264114, 0.7237195372581482, 1, -0.0000014137476682662964, 0.000008481554687023163, 0.00002307351678609848, 0.08208197355270386, -0.005905032157897949, 0.0039008259773254395, 9.85023021697998, -0.7086321711540222, 0.4681178033351898, -0.019441204145550728, 0.11663443595170975, 0.3172963559627533, -0.845703125, -0.418701171875, -0.075927734375, 0, 
60, 341057323, 0.01615004986524582, 0.6871375441551208, -0.06171075627207756, 0.7237216830253601, 1, 0.00001573842018842697, 0.0000013774260878562927, 0.000014885328710079193, 0.08227980136871338, -0.006088912487030029, 0.004194200038909912, 9.873970031738281, -0.7306987643241882, 0.5033236145973206, 0.21642747521400452, 0.0189417265355587, 0.2046961635351181, -0.84228515625, -0.421875, -0.072998046875, 0, 
61, 341065656, 0.016215605661273003, 0.6871270537376404, -0.061751771718263626, 0.7237266898155212, 1, 0.000025396235287189484, 0.0000034654513001441956, 0.000006883405148983002, 0.0824626088142395, -0.006137669086456299, 0.004179716110229492, 9.89590835571289, -0.7365496754646301, 0.5015859603881836, 0.34923726320266724, 0.04765527695417404, 0.09465739876031876, -0.84423828125, -0.420654296875, -0.072998046875, 0, 
62, 341073989, 0.016183577477931976, 0.687128484249115, -0.06171994283795357, 0.7237287163734436, 1, 0.00004553701728582382, -0.0000011213123798370361, 0.0000012991949915885925, 0.08253943920135498, -0.005835056304931641, 0.004054844379425049, 9.905128479003906, -0.7002347111701965, 0.48660075664520264, 0.6262040734291077, -0.01541977096349001, 0.017865929752588272, -0.84375, -0.421142578125, -0.075927734375, 0, 
63, 341082322, 0.01622023433446884, 0.6871228218078613, -0.06173793226480484, 0.7237316966056824, 1, 0.00005709659308195114, -0.000004217028617858887, 0.000003698281943798065, 0.08261597156524658, -0.005741894245147705, 0.004191339015960693, 9.914312362670898, -0.6890548467636108, 0.5029807686805725, 0.7851659655570984, -0.057990629225969315, 0.0508570671081543, -0.84228515625, -0.41748046875, -0.074951171875, 0, 
64, 341090655, 0.01616165041923523, 0.6871286034584045, -0.061699505895376205, 0.7237308621406555, 1, 0.00006866082549095154, -0.000007733702659606934, 0.000015756115317344666, 0.08253955841064453, -0.005772411823272705, 0.004191756248474121, 9.905142784118652, -0.6927170753479004, 0.5030308365821838, 0.9441919922828674, -0.10635031014680862, 0.21667082607746124, -0.84326171875, -0.419677734375, -0.076904296875, 0, 
65, 341098988, 0.016179023310542107, 0.6871197819709778, -0.06173517182469368, 0.7237357497215271, 1, 0.00007868092507123947, -0.0000040959566831588745, 0.00002765003591775894, 0.08243310451507568, -0.005532622337341309, 0.003974735736846924, 9.892367362976074, -0.6639412045478821, 0.4769870936870575, 1.0819836854934692, -0.056325703859329224, 0.38023051619529724, -0.84326171875, -0.4150390625, -0.075439453125, 0, 
66, 341107321, 0.016091158613562584, 0.6871288418769836, -0.06169069930911064, 0.7237328886985779, 1, 0.00009309593588113785, -0.000013263896107673645, 0.00003258977085351944, 0.08241820335388184, -0.005366086959838867, 0.004186451435089111, 9.890579223632812, -0.643956184387207, 0.5023941397666931, 1.28021240234375, -0.1823989748954773, 0.44815945625305176, -0.84423828125, -0.422119140625, -0.076904296875, 0, 
67, 341115654, 0.01614171452820301, 0.6871201992034912, -0.06178823485970497, 0.7237316966056824, 1, 0.00008428189903497696, -0.000012442469596862793, 0.00004772935062646866, 0.08235645294189453, -0.00549393892288208, 0.004079997539520264, 9.883169174194336, -0.6592990159988403, 0.48961925506591797, 1.1590055227279663, -0.1711030900478363, 0.6563519239425659, -0.84228515625, -0.41943359375, -0.074462890625, 0, 
68, 341123987, 0.016042150557041168, 0.6871283650398254, -0.06175520271062851, 0.7237289547920227, 1, 0.00009298417717218399, -0.000013517215847969055, 0.00004892516881227493, 0.08229458332061768, -0.005654811859130859, 0.00397413969039917, 9.875743865966797, -0.6786045432090759, 0.47691580653190613, 1.2786753177642822, -0.18588249385356903, 0.6727962493896484, -0.8447265625, -0.420166015625, -0.072021484375, 0, 
69, 341132320, 0.015991536900401115, 0.6871272325515747, -0.06175190582871437, 0.7237314581871033, 1, 0.0000950125977396965, -0.00001163780689239502, 0.000045095570385456085, 0.08240079879760742, -0.005768001079559326, 0.004065811634063721, 9.888490676879883, -0.6921877861022949, 0.48791688680648804, 1.3065693378448486, -0.16003772616386414, 0.6201333999633789, -0.84619140625, -0.421142578125, -0.075927734375, 0, 
70, 341140653, 0.015891317278146744, 0.6871324181556702, -0.061715852469205856, 0.7237318158149719, 1, 0.00009585078805685043, -0.000009238719940185547, 0.000047584064304828644, 0.08211004734039307, -0.005852043628692627, 0.0039288997650146484, 9.853599548339844, -0.7022732496261597, 0.47148680686950684, 1.3180956840515137, -0.1270465850830078, 0.6543540358543396, -0.84326171875, -0.4189453125, -0.074951171875, 0, 
71, 341148986, 0.015880664810538292, 0.6871171593666077, -0.061745911836624146, 0.7237439751625061, 1, 0.00010075327008962631, 0.000003582797944545746, 0.00004093814641237259, 0.08227783441543579, -0.005765736103057861, 0.004094958305358887, 9.873734474182129, -0.6919159293174744, 0.4914146065711975, 1.385512351989746, 0.04926897957921028, 0.5629624724388123, -0.845703125, -0.420166015625, -0.079345703125, 0, 
72, 341157319, 0.015778228640556335, 0.6871217489242554, -0.06170100346207619, 0.7237456440925598, 1, 0.00010395701974630356, -0.000007968395948410034, 0.00004328135401010513, 0.08229279518127441, -0.005680441856384277, 0.004080235958099365, 9.875529289245605, -0.6816802620887756, 0.48964786529541016, 1.429568886756897, -0.10957769304513931, 0.5951851606369019, -0.8427734375, -0.42138671875, -0.074951171875, 0, 
73, 341165652, 0.015938306227326393, 0.6871012449264526, -0.061898961663246155, 0.7237446904182434, 1, 0.00011003296822309494, -0.000010127201676368713, 0.000042700208723545074, 0.08235424757003784, -0.005398690700531006, 0.0039539337158203125, 9.882904052734375, -0.6478687524795532, 0.474490761756897, 1.513122320175171, -0.13926458358764648, 0.5871934294700623, -0.841796875, -0.4208984375, -0.072509765625, 0, 
74, 341173985, 0.015835825353860855, 0.6871095299720764, -0.061857838183641434, 0.7237426042556763, 1, 0.00010132789611816406, -0.00001331232488155365, 0.00004546530544757843, 0.08236932754516602, -0.005269885063171387, 0.0037837624549865723, 9.884714126586914, -0.6324114203453064, 0.4540698528289795, 1.3934142589569092, -0.18306493759155273, 0.625217854976654, -0.84228515625, -0.419921875, -0.073974609375, 0, 
75, 341182318, 0.015753792598843575, 0.687120795249939, -0.06183905526995659, 0.7237353920936584, 1, 0.00009213108569383621, -0.000025659799575805664, 0.000050446949899196625, 0.08267480134963989, -0.005006372928619385, 0.003534376621246338, 9.921372413635254, -0.6007887125015259, 0.42414212226867676, 1.2669440507888794, -0.3528617024421692, 0.6937231421470642, -0.84619140625, -0.419677734375, -0.073486328125, 0, 
76, 341190651, 0.01566576398909092, 0.6871421933174133, -0.06182030960917473, 0.7237185835838318, 1, 0.00007507298141717911, -0.000032315030694007874, 0.00004942622035741806, 0.08261382579803467, -0.004978954792022705, 0.003835737705230713, 9.914054870605469, -0.5974982380867004, 0.46030667424201965, 1.0323688983917236, -0.44438135623931885, 0.679686427116394, -0.84521484375, -0.422119140625, -0.076904296875, 0, 
77, 341198984, 0.015642961487174034, 0.6871575713157654, -0.06185649707913399, 0.7237013578414917, 1, 0.00006541330367326736, -0.00003384239971637726, 0.00005016010254621506, 0.08264404535293579, -0.005032002925872803, 0.003862321376800537, 9.917681694030762, -0.6038646697998047, 0.46349745988845825, 0.8995335698127747, -0.4653850793838501, 0.6897786259651184, -0.845703125, -0.416259765625, -0.074462890625, 0, 
78, 341207317, 0.015573668293654919, 0.6871840357780457, -0.06185583025217056, 0.7236778140068054, 1, 0.000048830173909664154, -0.000039910897612571716, 0.00004782993346452713, 0.08261221647262573, -0.005358576774597168, 0.003968954086303711, 9.913862228393555, -0.6430546641349792, 0.4762931764125824, 0.671489953994751, -0.5488361716270447, 0.6577351093292236, -0.84423828125, -0.419189453125, -0.074951171875, 0, 
79, 341215650, 0.01562916673719883, 0.6871973276138306, -0.0619666613638401, 0.7236544489860535, 1, 0.00003870483487844467, -0.000037241727113723755, 0.000051987357437610626, 0.0826270580291748, -0.005471527576446533, 0.004055917263031006, 9.915642738342285, -0.6566093564033508, 0.486729234457016, 0.5322510600090027, -0.5121309757232666, 0.7149061560630798, -0.84423828125, -0.416748046875, -0.074951171875, 0, 
80, 341223983, 0.015579965896904469, 0.687222421169281, -0.06196712329983711, 0.723631739616394, 1, 0.00003428477793931961, -0.00003700517117977142, 0.00003422517329454422, 0.08265691995620728, -0.005513429641723633, 0.0038523077964782715, 9.91922664642334, -0.6616379618644714, 0.46229538321495056, 0.471468448638916, -0.5088779926300049, 0.4706488251686096, -0.84375, -0.419677734375, -0.076416015625, 0, 
81, 341232316, 0.015567787922918797, 0.6872437596321106, -0.06197483092546463, 0.7236109972000122, 1, 0.00004023965448141098, -0.000035779550671577454, 0.00002431776374578476, 0.08267158269882202, -0.005655944347381592, 0.0038638710975646973, 9.92098617553711, -0.6787404417991638, 0.46368303894996643, 0.5533571243286133, -0.4920238256454468, 0.3344065845012665, -0.84912109375, -0.418701171875, -0.073486328125, 0, 
82, 341240649, 0.015534110367298126, 0.6872658729553223, -0.06195018067955971, 0.7235928177833557, 1, 0.00004214327782392502, -0.00003043748438358307, 0.000006037764251232147, 0.08247393369674683, -0.005534529685974121, 0.004009366035461426, 9.89726734161377, -0.6641700863838196, 0.48114314675331116, 0.5795347690582275, -0.4185621738433838, 0.08302854001522064, -0.84375, -0.41796875, -0.072998046875, 0, 
83, 341248982, 0.015565677545964718, 0.6872824430465698, -0.061961863189935684, 0.7235754132270813, 1, 0.00004142429679632187, -0.000028833746910095215, -0.000003034248948097229, 0.08259636163711548, -0.0055190324783325195, 0.004095971584320068, 9.911958694458008, -0.6623103618621826, 0.4915362298488617, 0.5696477890014648, -0.3965083062648773, -0.04172558709979057, -0.84375, -0.421630859375, -0.076416015625, 0, 
84, 341257315, 0.015545934438705444, 0.6873030662536621, -0.061916105449199677, 0.7235601544380188, 1, 0.00004833284765481949, -0.000026222318410873413, -0.000018436461687088013, 0.08270406723022461, -0.005424141883850098, 0.00428849458694458, 9.924884796142578, -0.6509230136871338, 0.5146399140357971, 0.6646509170532227, -0.360597163438797, -0.25352969765663147, -0.8427734375, -0.41748046875, -0.074951171875, 0, 
85, 341265648, 0.015643933787941933, 0.6873204112052917, -0.06194688379764557, 0.7235389351844788, 1, 0.00005248095840215683, -0.000033507123589515686, -0.00003471598029136658, 0.08219999074935913, -0.005574464797973633, 0.004074156284332275, 9.864392280578613, -0.6689624786376953, 0.488918274641037, 0.7216939330101013, -0.4607744514942169, -0.4773980975151062, -0.84619140625, -0.419189453125, -0.073486328125, 0, 
86, 341273981, 0.015645930543541908, 0.6873542666435242, -0.061860039830207825, 0.723514199256897, 1, 0.0000626957044005394, -0.00004018470644950867, -0.00006340630352497101, 0.08187955617904663, -0.005780577659606934, 0.004088342189788818, 9.825939178466797, -0.6936972141265869, 0.49062037467956543, 0.8621624112129211, -0.5526014566421509, -0.8719341158866882, -0.845703125, -0.420166015625, -0.078369140625, 0, 
87, 341282314, 0.015700671821832657, 0.6873855590820312, -0.061783503741025925, 0.7234898805618286, 1, 0.00009152572602033615, -0.000043235719203948975, -0.00008140504360198975, 0.08161956071853638, -0.006092667579650879, 0.0038589835166931152, 9.794878959655762, -0.7296662330627441, 0.4624664783477783, 1.2586194276809692, -0.5945576429367065, -1.119444489479065, -0.84619140625, -0.418701171875, -0.074462890625, 0, 
88, 341290647, 0.015688883140683174, 0.6874226927757263, -0.061645254492759705, 0.7234666347503662, 1, 0.00011000130325555801, -0.000041658058762550354, -0.00008882768452167511, 0.0815284252166748, -0.006456196308135986, 0.004088044166564941, 9.783924102783203, -0.7735084295272827, 0.4901425242424011, 1.512687087059021, -0.5728623867034912, -1.2215173244476318, -0.8447265625, -0.420166015625, -0.073974609375, 0, 
89, 341298980, 0.015702297911047935, 0.6874614357948303, -0.06150098890066147, 0.7234417200088501, 1, 0.0001418059691786766, -0.000048611313104629517, -0.00010215304791927338, 0.0817902684211731, -0.006330549716949463, 0.004355192184448242, 9.815317153930664, -0.7587211728096008, 0.5223092436790466, 1.9500499963760376, -0.6684802770614624, -1.404761552810669, -0.84423828125, -0.421142578125, -0.073486328125, 0, 
90, 341307313, 0.015639711171388626, 0.6875085234642029, -0.06132148951292038, 0.7234135866165161, 1, 0.00017471704632043839, -0.00005468912422657013, -0.00008115358650684357, 0.08212876319885254, -0.00611114501953125, 0.004604458808898926, 9.855912208557129, -0.7327005863189697, 0.5522516965866089, 2.402628183364868, -0.7520595788955688, -1.1159865856170654, -0.84228515625, -0.42041015625, -0.072021484375, 0, 
91, 341315646, 0.015637362375855446, 0.6875464916229248, -0.06118163466453552, 0.7233893871307373, 1, 0.00021476950496435165, -0.00005445443093776703, -0.00008894689381122589, 0.08289307355880737, -0.0060097575187683105, 0.00441133975982666, 9.947663307189941, -0.720155656337738, 0.528977632522583, 2.953411102294922, -0.7488321661949158, -1.2231565713882446, -0.8447265625, -0.418701171875, -0.072509765625, 0, 
92, 341323979, 0.015512984246015549, 0.6875908970832825, -0.06096269562840462, 0.7233684062957764, 0.9999999403953552, 0.00024639349430799484, -0.000050941482186317444, -0.000063261017203331, 0.0835195779800415, -0.006179511547088623, 0.004315197467803955, 10.022814750671387, -0.7408965826034546, 0.5175539255142212, 3.3882896900177, -0.7005237936973572, -0.8699363470077515, -0.84228515625, -0.419921875, -0.073486328125, 0, 
93, 341332312, 0.015416468493640423, 0.6876214742660522, -0.060788046568632126, 0.7233561873435974, 0.9999999403953552, 0.00027204956859350204, -0.00004607066512107849, -0.00004783459007740021, 0.08370232582092285, -0.006448507308959961, 0.003932654857635498, 10.044747352600098, -0.7731576561927795, 0.47164979577064514, 3.7410995960235596, -0.6335424780845642, -0.6577991247177124, -0.841796875, -0.42138671875, -0.071533203125, 0, 
94, 341340645, 0.015245584771037102, 0.6876535415649414, -0.060535695403814316, 0.723350465297699, 0.9999999403953552, 0.0003034127876162529, -0.00003386661410331726, -0.00005167722702026367, 0.0836719274520874, -0.006669104099273682, 0.0038257837295532227, 10.041084289550781, -0.7997106313705444, 0.45902183651924133, 4.172392845153809, -0.4657180607318878, -0.7106413245201111, -0.84130859375, -0.42236328125, -0.072509765625, 0, 
95, 341348978, 0.015093887224793434, 0.6876804828643799, -0.060300033539533615, 0.7233479022979736, 0.9999999403953552, 0.0003266548737883568, -0.000037608668208122253, -0.00005381740629673004, 0.08312296867370605, -0.0067212581634521484, 0.003643631935119629, 9.9752197265625, -0.8058534264564514, 0.43713313341140747, 4.492007255554199, -0.5171770453453064, -0.7400721311569214, -0.845703125, -0.424072265625, -0.074951171875, 0, 
96, 341357311, 0.014881771989166737, 0.6877263784408569, -0.06001191958785057, 0.7233325839042664, 0.9999999403953552, 0.00035752542316913605, -0.000052483752369880676, -0.00004727393388748169, 0.08251398801803589, -0.006615579128265381, 0.0037178397178649902, 9.902129173278809, -0.7933379411697388, 0.44594672322273254, 4.916524410247803, -0.7217323184013367, -0.6500892639160156, -0.84521484375, -0.423095703125, -0.072509765625, 0, 
97, 341365644, 0.014822369441390038, 0.6877581477165222, -0.05986689776182175, 0.7233153581619263, 0.9999999403953552, 0.00038803089410066605, -0.00005830638110637665, -0.00005405209958553314, 0.08236253261566162, -0.006349325180053711, 0.0035108327865600586, 9.883960723876953, -0.7612868547439575, 0.421050101518631, 5.336021423339844, -0.801802396774292, -0.7432994246482849, -0.84228515625, -0.421875, -0.071533203125, 0, 
98, 341373977, 0.014586489647626877, 0.687800943851471, -0.059542808681726456, 0.7233061790466309, 0.9999999403953552, 0.0004002014175057411, -0.00004688277840614319, -0.000054663047194480896, 0.08190631866455078, -0.006423234939575195, 0.0037533044815063477, 9.829218864440918, -0.7700429558753967, 0.45024964213371277, 5.503385066986084, -0.6447103023529053, -0.7517009377479553, -0.84326171875, -0.4228515625, -0.072509765625, 0, 
99, 341382310, 0.014332693070173264, 0.6878388524055481, -0.059202149510383606, 0.7233031392097473, 0.9999999403953552, 0.0004137856885790825, -0.00004376843571662903, -0.00006318092346191406, 0.08207494020462036, -0.0062181949615478516, 0.00351715087890625, 9.84945297241211, -0.7454086542129517, 0.4219512641429901, 5.690189838409424, -0.6018832921981812, -0.868834912776947, -0.84228515625, -0.42041015625, -0.072021484375, 0, 
100, 341390643, 0.014084362424910069, 0.6878764629364014, -0.05885636806488037, 0.7233005166053772, 0.9999998807907104, 0.00042547937482595444, -0.00003909505903720856, -0.000060150399804115295, 0.0821073055267334, -0.006259143352508545, 0.00382155179977417, 9.853331565856934, -0.7503705024719238, 0.4585413932800293, 5.8509955406188965, -0.5376171469688416, -0.8271604776382446, -0.84423828125, -0.423583984375, -0.072998046875, 0, 
101, 341398976, 0.013945928774774075, 0.6878955960273743, -0.05863357335329056, 0.7233031988143921, 0.9999998807907104, 0.0004486190155148506, -0.00003312528133392334, -0.00005763024091720581, 0.0823671817779541, -0.006265997886657715, 0.0036368966102600098, 9.884514808654785, -0.7511734366416931, 0.43645498156547546, 6.169201850891113, -0.4555235803127289, -0.7925044894218445, -0.841796875, -0.42138671875, -0.068115234375, 0, 
102, 341407309, 0.013665995560586452, 0.6879302859306335, -0.05826026573777199, 0.7233057022094727, 0.9999998807907104, 0.0004675770178437233, -0.00003502704203128815, -0.000055966898798942566, 0.08282625675201416, -0.005949676036834717, 0.0035977959632873535, 9.93959903717041, -0.7132803201675415, 0.4317392110824585, 6.42990255355835, -0.4816756844520569, -0.7696309089660645, -0.84375, -0.427001953125, -0.068115234375, 0, 
103, 341415642, 0.01340638566762209, 0.6879502534866333, -0.05793497711420059, 0.7233176827430725, 0.9999998807907104, 0.0004765419289469719, -0.000023737549781799316, -0.000048611313104629517, 0.08287370204925537, -0.0058557987213134766, 0.0037938952445983887, 9.945287704467773, -0.7019979357719421, 0.4553879499435425, 6.553183555603027, -0.32642775774002075, -0.6684802770614624, -0.84423828125, -0.42236328125, -0.068603515625, 0, 
104, 341423975, 0.013112597167491913, 0.6879622936248779, -0.057561732828617096, 0.7233414649963379, 0.9999998807907104, 0.00047847162932157516, -0.000004727393388748169, -0.00004433467984199524, 0.08272343873977661, -0.005605161190032959, 0.004171311855316162, 9.927242279052734, -0.6719444990158081, 0.5008611679077148, 6.5797200202941895, -0.06500893086194992, -0.6096699833869934, -0.84423828125, -0.4228515625, -0.066650390625, 0, 
105, 341432308, 0.012915687635540962, 0.6879673004150391, -0.057287152856588364, 0.7233620285987854, 0.9999998807907104, 0.00046927575021982193, -0.000008208677172660828, -0.000055477023124694824, 0.08238840103149414, -0.00541079044342041, 0.004156827926635742, 9.887040138244629, -0.6485898494720459, 0.49904802441596985, 6.453262805938721, -0.11288192123174667, -0.762894332408905, -0.8427734375, -0.4208984375, -0.071533203125, 0, 
106, 341440641, 0.012630453333258629, 0.6879790425300598, -0.05692686140537262, 0.7233843207359314, 0.9999998807907104, 0.00046310294419527054, -0.000005271285772323608, -0.00004155933856964111, 0.0820533037185669, -0.005277812480926514, 0.004066646099090576, 9.846817970275879, -0.6327499151229858, 0.48824992775917053, 6.368377685546875, -0.07248828560113907, -0.5715047717094421, -0.84375, -0.423828125, -0.068603515625, 0, 
107, 341448974, 0.01241703238338232, 0.6879890561103821, -0.056655872613191605, 0.7233996391296387, 0.9999998807907104, 0.0004578540101647377, -0.00001588091254234314, -0.000041756778955459595, 0.0819166898727417, -0.005113661289215088, 0.004097342491149902, 9.830428123474121, -0.6130372881889343, 0.49182364344596863, 6.296195983886719, -0.2183869630098343, -0.574219822883606, -0.8447265625, -0.423095703125, -0.072998046875, 0, 
108, 341457307, 0.012130925431847572, 0.6880195140838623, -0.056314218789339066, 0.7234022617340088, 0.9999998807907104, 0.00044952332973480225, -0.00003262422978878021, -0.000029454007744789124, 0.0815054178237915, -0.0048743486404418945, 0.004078567028045654, 9.781073570251465, -0.5844255685806274, 0.4893900752067566, 6.181637287139893, -0.4486333429813385, -0.40503793954849243, -0.84130859375, -0.421875, -0.071533203125, 0, 
109, 341465640, 0.012096629478037357, 0.6880295872688293, -0.05623500794172287, 0.7233994007110596, 0.9999998807907104, 0.00042628031224012375, -0.00003615580499172211, -0.000027332454919815063, 0.08168911933898926, -0.004578590393066406, 0.003991901874542236, 9.803116798400879, -0.5489932894706726, 0.4789302945137024, 5.8620100021362305, -0.4971979558467865, -0.37586328387260437, -0.8427734375, -0.42724609375, -0.070068359375, 0, 
110, 341473973, 0.011829054914414883, 0.6880678534507751, -0.05592495575547218, 0.7233914732933044, 0.9999999403953552, 0.0004142438992857933, -0.000045005232095718384, -0.000021688640117645264, 0.08179736137390137, -0.004682779312133789, 0.00431370735168457, 9.81611156463623, -0.5615170001983643, 0.5174508094787598, 5.696491241455078, -0.618891179561615, -0.2982521951198578, -0.84130859375, -0.42578125, -0.066162109375, 0, 
111, 341482306, 0.011750183068215847, 0.688091516494751, -0.055825114250183105, 0.7233778834342957, 0.9999999403953552, 0.0003913724794983864, -0.000050790607929229736, -0.000011421740055084229, 0.08196496963500977, -0.004653275012969971, 0.0040645599365234375, 9.83621883392334, -0.5581254959106445, 0.4874979853630066, 5.381973743438721, -0.6984490156173706, -0.1570664942264557, -0.84130859375, -0.42431640625, -0.065673828125, 0, 
112, 341490639, 0.011513237841427326, 0.6881319880485535, -0.055555690079927444, 0.7233639359474182, 0.9999999403953552, 0.00036454107612371445, -0.000049544498324394226, -0.000016042962670326233, 0.08216452598571777, -0.0044155120849609375, 0.004173636436462402, 9.860174179077148, -0.5295081734657288, 0.5005316734313965, 5.01300048828125, -0.6813129782676697, -0.22061538696289062, -0.84521484375, -0.424560546875, -0.069091796875, 0, 
113, 341498972, 0.011385960504412651, 0.6881778240203857, -0.05540750175714493, 0.7233337163925171, 0.9999999403953552, 0.00033234618604183197, -0.00007323455065488815, -0.000014630146324634552, 0.08230137825012207, -0.004404008388519287, 0.0038931965827941895, 9.876602172851562, -0.5281941890716553, 0.46663957834243774, 4.5702714920043945, -1.0070877075195312, -0.20118702948093414, -0.841796875, -0.42578125, -0.066162109375, 0, 
114, 341507305, 0.011185538955032825, 0.6882360577583313, -0.05519211292266846, 0.7232980132102966, 0.9999999403953552, 0.00030017178505659103, -0.00007594190537929535, -0.000006414949893951416, 0.0824400782585144, -0.004105746746063232, 0.0039803385734558105, 9.893240928649902, -0.4925164580345154, 0.47709721326828003, 4.127823829650879, -1.0443179607391357, -0.0882154330611229, -0.84375, -0.42578125, -0.068115234375, 0, 
115, 341515638, 0.011084387078881264, 0.6882933378219604, -0.05509583279490471, 0.7232524156570435, 0.9999999403953552, 0.0002721678465604782, -0.00009100418537855148, 0.000004278495907783508, 0.08239442110061646, -0.004137098789215088, 0.003849506378173828, 9.887768745422363, -0.496381014585495, 0.46112921833992004, 3.7427260875701904, -1.251447319984436, 0.058835890144109726, -0.84423828125, -0.4248046875, -0.067138671875, 0, 
116, 341523971, 0.0109193604439497, 0.6883611083030701, -0.05493953451514244, 0.7232023477554321, 0.9999999403953552, 0.00023259315639734268, -0.00009151920676231384, 0.000007945112884044647, 0.08262377977371216, -0.004107058048248291, 0.0037890076637268066, 9.91528606414795, -0.49284112453460693, 0.45394349098205566, 3.198513984680176, -1.2585299015045166, 0.1092575266957283, -0.843505859375, -0.4248046875, -0.064697265625, 0, 
117, 341532304, 0.010852898471057415, 0.6884186267852783, -0.054886750876903534, 0.7231524586677551, 1, 0.0002076840028166771, -0.00009226612746715546, 0.000012303702533245087, 0.08267015218734741, -0.00406193733215332, 0.003743469715118408, 9.920855522155762, -0.48748528957366943, 0.4482974708080292, 2.8559744358062744, -1.2688010931015015, 0.16919483244419098, -0.841552734375, -0.42578125, -0.065185546875, 0, 
118, 341540637, 0.0107107600197196, 0.688480794429779, -0.05478763207793236, 0.7231029272079468, 1, 0.0001757768914103508, -0.00008642487227916718, 0.00003098789602518082, 0.08277767896652222, -0.004076063632965088, 0.003775656223297119, 9.933735847473145, -0.48931992053985596, 0.45251137018203735, 2.4172024726867676, -1.1884747743606567, 0.4261312186717987, -0.842041015625, -0.4248046875, -0.064697265625, 0, 
119, 341548970, 0.010732079856097698, 0.6885232329368591, -0.05483856797218323, 0.7230584621429443, 1, 0.00014381948858499527, -0.0000781230628490448, 0.000027927570044994354, 0.08312946557998657, -0.0040169358253479, 0.0038199424743652344, 9.975958824157715, -0.4822815954685211, 0.45764386653900146, 1.9777390956878662, -1.0743122100830078, 0.3840470612049103, -0.84521484375, -0.424560546875, -0.066650390625, 0, 
120, 341557303, 0.010627660900354385, 0.6885692477226257, -0.05479051545262337, 0.7230198383331299, 1, 0.00011392869055271149, -0.00006572436541318893, 0.00003993324935436249, 0.08300638198852539, -0.004030585289001465, 0.0035341978073120117, 9.961176872253418, -0.48424050211906433, 0.42317479848861694, 1.566694736480713, -0.9038110971450806, 0.5491436123847961, -0.84130859375, -0.42431640625, -0.065673828125, 0, 
121, 341565636, 0.010654526762664318, 0.688589334487915, -0.05485457181930542, 0.722995400428772, 1, 0.00008352380245923996, -0.00004456751048564911, 0.000035556964576244354, 0.08308148384094238, -0.004045665264129639, 0.00327986478805542, 9.970176696777344, -0.48549947142601013, 0.39359965920448303, 1.14858078956604, -0.6128718256950378, 0.48896294832229614, -0.84326171875, -0.42138671875, -0.066162109375, 0, 
122, 341573969, 0.010611486621201038, 0.6886050701141357, -0.05486808717250824, 0.7229800224304199, 1, 0.00002857949584722519, -0.00002537854015827179, 0.00003986712545156479, 0.08308184146881104, -0.003973543643951416, 0.0033008456230163574, 9.970218658447266, -0.47684428095817566, 0.39611729979515076, 0.39301198720932007, -0.3489939570426941, 0.5482343435287476, -0.84375, -0.4248046875, -0.066162109375, 0, 
123, 341582302, 0.01074268389493227, 0.6886029839515686, -0.05502397567033768, 0.7229682207107544, 1, -0.000008281320333480835, -0.00001660175621509552, 0.00003001932054758072, 0.08267009258270264, -0.003961384296417236, 0.0033745169639587402, 9.920807838439941, -0.4753851592540741, 0.4049583375453949, -0.11388088017702103, -0.22829966247081757, 0.412811815738678, -0.841552734375, -0.42529296875, -0.061279296875, 0, 
124, 341590635, 0.010763530619442463, 0.6886143088340759, -0.05508086457848549, 0.7229527831077576, 1, -0.000046094879508018494, -0.000019198283553123474, 0.000023844651877880096, 0.08253151178359985, -0.004065215587615967, 0.0031775832176208496, 9.904176712036133, -0.48784536123275757, 0.38132521510124207, -0.6338754892349243, -0.2640059292316437, 0.32790061831474304, -0.84130859375, -0.4248046875, -0.067626953125, 0, 
125, 341598968, 0.01083354465663433, 0.6886212825775146, -0.05516926944255829, 0.7229382991790771, 1, -0.00007697567343711853, -0.00001621432602405548, 0.00002303626388311386, 0.08247101306915283, -0.004382669925689697, 0.003369450569152832, 9.896916389465332, -0.5259413719177246, 0.404350221157074, -1.0585339069366455, -0.22297190129756927, 0.3167840540409088, -0.842529296875, -0.421875, -0.063720703125, 0, 
126, 341607301, 0.010893813334405422, 0.6886257529258728, -0.05526774749159813, 0.7229255437850952, 1, -0.00010248366743326187, -0.000010567717254161835, 0.000024428591132164, 0.08259254693984985, -0.004541337490081787, 0.0033254027366638184, 9.911500930786133, -0.5449822545051575, 0.3990642726421356, -1.4093079566955566, -0.14532236754894257, 0.3359306752681732, -0.83984375, -0.423828125, -0.067138671875, 0, 
127, 341615634, 0.011009680107235909, 0.688629150390625, -0.05539930611848831, 0.722910463809967, 1, -0.00012025516480207443, -0.000012013129889965057, 0.000023070722818374634, 0.08263945579528809, -0.00450664758682251, 0.003565371036529541, 9.91711711883545, -0.5413708090782166, 0.42749863862991333, -1.653693437576294, -0.16519899666309357, 0.31725791096687317, -0.842529296875, -0.423828125, -0.062744140625, 0, 
128, 341623967, 0.011084864847362041, 0.6886243224143982, -0.05552023649215698, 0.7229045629501343, 1, -0.00012893043458461761, 0.0000014686957001686096, 0.000029639340937137604, 0.08253306150436401, -0.004704296588897705, 0.0037073493003845215, 9.904333114624023, -0.5651357173919678, 0.4448007047176361, -1.77299165725708, 0.02019682340323925, 0.4075865149497986, -0.8427734375, -0.42431640625, -0.067626953125, 0, 
129, 341632300, 0.011197708547115326, 0.6886187195777893, -0.05565546825528145, 0.7228979468345642, 1, -0.00014443136751651764, 0.000002414919435977936, 0.000028590671718120575, 0.08273118734359741, -0.004800260066986084, 0.00375443696975708, 9.92811393737793, -0.576533854007721, 0.45046916604042053, -1.986153483390808, 0.03320886194705963, 0.3931657373905182, -0.845703125, -0.424560546875, -0.067138671875, 0, 
130, 341640633, 0.0112889613956213, 0.6886059045791626, -0.055776774883270264, 0.7228993773460388, 1, -0.00013967789709568024, 0.00001308787614107132, 0.000018962658941745758, 0.08274602890014648, -0.004791915416717529, 0.0037223100662231445, 9.929895401000977, -0.5754256844520569, 0.44676879048347473, -1.9207857847213745, 0.1799784153699875, 0.2607657313346863, -0.844482421875, -0.4248046875, -0.064208984375, 0, 
131, 341648966, 0.011508749797940254, 0.6885799765586853, -0.05599502846598625, 0.7229037880897522, 1, -0.00014898087829351425, 0.000021511688828468323, 0.000016335397958755493, 0.08247143030166626, -0.004959523677825928, 0.003837406635284424, 9.896941184997559, -0.5954660177230835, 0.4606686532497406, -2.0487160682678223, 0.2958187758922577, 0.22463683784008026, -0.84033203125, -0.42529296875, -0.068115234375, 0, 
132, 341657299, 0.011641710996627808, 0.6885611414909363, -0.05613015219569206, 0.722909152507782, 1, -0.00017811544239521027, 0.000022291205823421478, -0.0000012498348951339722, 0.08233237266540527, -0.004942417144775391, 0.0035645365715026855, 9.880271911621094, -0.5931727886199951, 0.42786744236946106, -2.4493613243103027, 0.3065383732318878, -0.017187152057886124, -0.84326171875, -0.4228515625, -0.068115234375, 0, 
133, 341665632, 0.011899608187377453, 0.6885390877723694, -0.056364089250564575, 0.7229077219963074, 1, -0.00018658116459846497, 0.000016597099602222443, -1.7508864402770996e-7, 0.08218151330947876, -0.004643857479095459, 0.0038314461708068848, 9.862168312072754, -0.5573564767837524, 0.4598426818847656, -2.5657780170440674, 0.22823566198349, -0.0024077382404357195, -0.84423828125, -0.423583984375, -0.070556640625, 0, 
134, 341673965, 0.012038279324769974, 0.6885310411453247, -0.05651400610804558, 0.722901463508606, 1, -0.00019253790378570557, 0.000006538815796375275, 0.000004070810973644257, 0.08224397897720337, -0.004650413990020752, 0.004122436046600342, 9.869667053222656, -0.5581807494163513, 0.49467769265174866, -2.6476924419403076, 0.08991876989603043, 0.05597991123795509, -0.84228515625, -0.42236328125, -0.068603515625, 0, 
135, 341682298, 0.012273603118956089, 0.6885221004486084, -0.05673728883266449, 0.7228883504867554, 1, -0.00018967315554618835, -4.3585896492004395e-7, 0.000007403083145618439, 0.08239513635635376, -0.004811763763427734, 0.003943264484405518, 9.88780689239502, -0.5775696039199829, 0.47311657667160034, -2.608297824859619, -0.005993731319904327, 0.10180378705263138, -0.842041015625, -0.421875, -0.063720703125, 0, 
136, 341690631, 0.012393568642437458, 0.6885199546813965, -0.05688248202204704, 0.7228769659996033, 1, -0.0001755896955728531, -0.0000023599714040756226, 0.000014076940715312958, 0.08256268501281738, -0.004665970802307129, 0.0038285255432128906, 9.90791130065918, -0.5601502656936646, 0.45932453870773315, -2.414628267288208, -0.03245323896408081, 0.19357958436012268, -0.8447265625, -0.425048828125, -0.068603515625, 0, 
137, 341698964, 0.01251711044460535, 0.6885165572166443, -0.0570080503821373, 0.7228681445121765, 1, -0.00016604363918304443, 9.98377799987793e-7, 0.00001578591763973236, 0.08265388011932373, -0.004716455936431885, 0.0037970542907714844, 9.918850898742676, -0.5662460327148438, 0.45557448267936707, -2.283355236053467, 0.013729228638112545, 0.21708063781261444, -0.84130859375, -0.42333984375, -0.067138671875, 0, 
138, 341707297, 0.01260984968394041, 0.688512921333313, -0.05715210735797882, 0.7228586673736572, 1, -0.0001545548439025879, -0.0000015813857316970825, 0.000033085234463214874, 0.08246952295303345, -0.005044400691986084, 0.0036854147911071777, 9.89671516418457, -0.60582435131073, 0.44213706254959106, -2.125366687774658, -0.02174648456275463, 0.4549728333950043, -0.84326171875, -0.4248046875, -0.067138671875, 0, 
139, 341715630, 0.012748251669108868, 0.6885071992874146, -0.057325299829244614, 0.7228480577468872, 1, -0.00013569556176662445, -0.0000033546239137649536, 0.000042129307985305786, 0.0823773741722107, -0.005369126796722412, 0.0037556886672973633, 9.885641098022461, -0.6450256705284119, 0.45052260160446167, -1.8660225868225098, -0.046131234616041183, 0.5793427228927612, -0.841796875, -0.42529296875, -0.072021484375, 0, 
140, 341723963, 0.012802165932953358, 0.6885070204734802, -0.057452257722616196, 0.7228371500968933, 1, -0.00011564977467060089, -0.000006953254342079163, 0.00004929304122924805, 0.08226960897445679, -0.005500912666320801, 0.0036972761154174805, 9.872692108154297, -0.6611471772193909, 0.44341805577278137, -1.5903621912002563, -0.09561793506145477, 0.6778550744056702, -0.841796875, -0.42431640625, -0.068115234375, 0, 
141, 341732296, 0.013018166646361351, 0.6884925961494446, -0.05773265287280083, 0.7228246927261353, 1, -0.00009724125266075134, -0.000006431713700294495, 0.00006759818643331528, 0.08213144540786743, -0.0059188008308410645, 0.003785252571105957, 9.85616683959961, -0.7102844715118408, 0.45424845814704895, -1.3372167348861694, -0.08844594657421112, 0.929578959941864, -0.841796875, -0.4228515625, -0.066162109375, 0, 
142, 341740629, 0.013028156012296677, 0.6884932518005371, -0.05783781409263611, 0.7228154540061951, 1, -0.0000691097229719162, -0.000008750706911087036, 0.0000660112127661705, 0.08226919174194336, -0.005757749080657959, 0.003944694995880127, 9.872697830200195, -0.6909573674201965, 0.47338202595710754, -0.950364887714386, -0.12033567577600479, 0.9077556133270264, -0.84375, -0.423828125, -0.070068359375, 0, 
143, 341748962, 0.013078512623906136, 0.6884948015213013, -0.05796283483505249, 0.7228031158447266, 1, -0.000045141205191612244, -0.00001418963074684143, 0.00007032882422208786, 0.08223944902420044, -0.005624353885650635, 0.004166841506958008, 9.869128227233887, -0.6749494075775146, 0.5000409483909607, -0.620760977268219, -0.19512923061847687, 0.9671294093132019, -0.84228515625, -0.42236328125, -0.066162109375, 0, 
144, 341757295, 0.013065238483250141, 0.688511848449707, -0.05803508311510086, 0.7227813005447388, 1, -0.00002837926149368286, -0.000030249357223510742, 0.00005909893661737442, 0.08255904912948608, -0.005442380905151367, 0.004049241542816162, 9.90748119354248, -0.6531117558479309, 0.48592838644981384, -0.39025843143463135, -0.4159751534461975, 0.8127012252807617, -0.84130859375, -0.423828125, -0.066162109375, 0, 
145, 341765628, 0.013095306232571602, 0.6885189414024353, -0.05813080072402954, 0.7227662205696106, 1, -0.000013692304491996765, -0.000021142885088920593, 0.00006308779120445251, 0.0826348066329956, -0.005273401737213135, 0.003915607929229736, 9.916572570800781, -0.6328334808349609, 0.4698917269706726, -0.18829022347927094, -0.29074716567993164, 0.8675540685653687, -0.8447265625, -0.425537109375, -0.069091796875, 0, 
146, 341773961, 0.013077175244688988, 0.688536524772644, -0.05819234624505043, 0.722744882106781, 1, -0.000017063692212104797, -0.000030443072319030762, 0.00005537737160921097, 0.08280229568481445, -0.005373477935791016, 0.003990232944488525, 9.93667221069336, -0.6448431015014648, 0.47884708642959595, -0.23465201258659363, -0.41863903403282166, 0.7615240216255188, -0.8427734375, -0.42431640625, -0.071044921875, 0, 
147, 341782294, 0.013258016668260098, 0.6885391473770142, -0.058399125933647156, 0.7227223515510559, 1, -0.000011976808309555054, -0.00002845190465450287, 0.000038759782910346985, 0.0827094316482544, -0.005433619022369385, 0.003819286823272705, 9.925527572631836, -0.6520602703094482, 0.4583326578140259, -0.164699524641037, -0.3912574350833893, 0.5330065488815308, -0.84326171875, -0.4228515625, -0.069580078125, 0, 
148, 341790627, 0.013238814659416676, 0.6885530352592468, -0.05844107270240784, 0.722706139087677, 1, -0.0000018253922462463379, -0.000024106353521347046, 0.000042953528463840485, 0.08263343572616577, -0.0054822564125061035, 0.0039231181144714355, 9.91640853881836, -0.6578970551490784, 0.4707929790019989, -0.025101948529481888, -0.33149945735931396, 0.5906770825386047, -0.84375, -0.424072265625, -0.072509765625, 0, 
149, 341798960, 0.013359307311475277, 0.688545823097229, -0.05859651044011116, 0.7226981520652771, 1, 0.00002860184758901596, -0.000011945143342018127, 0.0000456562265753746, 0.08245062828063965, -0.00521475076675415, 0.0038959383964538574, 9.89447021484375, -0.6257950663566589, 0.4675312638282776, 0.39331936836242676, -0.16426406800746918, 0.6278432607650757, -0.84326171875, -0.423828125, -0.069091796875, 0, 
150, 341807293, 0.01330074667930603, 0.6885505318641663, -0.05862545967102051, 0.7226923704147339, 1, 0.00003592018038034439, -0.000012505799531936646, 0.00006317067891359329, 0.08246481418609619, -0.005121409893035889, 0.0037078261375427246, 9.896172523498535, -0.6145937442779541, 0.44495689868927, 0.4939576983451843, -0.17197397351264954, 0.8686939477920532, -0.84423828125, -0.424072265625, -0.068603515625, 0, 
151, 341815626, 0.013281557708978653, 0.6885366439819336, -0.058674078434705734, 0.7227020859718323, 1, 0.000055155716836452484, 0.000007909722626209259, 0.00006684008985757828, 0.08260160684585571, -0.0051618218421936035, 0.0037215352058410645, 9.912588119506836, -0.6194433569908142, 0.4466020464897156, 0.7584758400917053, 0.10877084732055664, 0.9191538095474243, -0.8427734375, -0.421875, -0.071533203125, 0, 
152, 341823959, 0.013201313093304634, 0.6885309219360352, -0.0586850605905056, 0.7227081656455994, 1, 0.00006516557186841965, 0.000002059154212474823, 0.00006726477295160294, 0.08267819881439209, -0.005391120910644531, 0.004050731658935547, 9.92177963256836, -0.6469603180885315, 0.48610720038414, 0.8961268067359924, 0.02831653691828251, 0.9249940514564514, -0.84326171875, -0.4228515625, -0.070556640625, 0, 
153, 341832292, 0.013318267650902271, 0.6885066032409668, -0.05888083204627037, 0.7227132320404053, 1, 0.00008141808211803436, 0.000003082677721977234, 0.00008067861199378967, 0.08269292116165161, -0.0054007768630981445, 0.004082202911376953, 9.92354679107666, -0.6481191515922546, 0.4898834824562073, 1.1196237802505493, 0.04239155724644661, 1.1094549894332886, -0.84423828125, -0.422607421875, -0.069580078125, 0, 
154, 341840625, 0.013212895020842552, 0.6884973645210266, -0.058876585215330124, 0.7227243185043335, 1, 0.00009440537542104721, 0.000006790272891521454, 0.00007533375173807144, 0.08267521858215332, -0.005407154560089111, 0.0038086771965026855, 9.921422004699707, -0.6488844752311707, 0.45705950260162354, 1.2982189655303955, 0.09337668865919113, 1.0359548330307007, -0.841796875, -0.4228515625, -0.070068359375, 0, 
155, 341848958, 0.013219300657510757, 0.6884937882423401, -0.05894772335886955, 0.7227218151092529, 1, 0.00009673181921243668, -0.0000124368816614151, 0.00006634462624788284, 0.082599937915802, -0.0055275559425354, 0.004211783409118652, 9.91238784790039, -0.6633331775665283, 0.5054342150688171, 1.3302111625671387, -0.17102625966072083, 0.9123407006263733, -0.84326171875, -0.42431640625, -0.070556640625, 0, 
156, 341857291, 0.013126651756465435, 0.6884983777999878, -0.05893043428659439, 0.7227205038070679, 1, 0.00009586941450834274, -0.000010933727025985718, 0.000056306831538677216, 0.08262807130813599, -0.005413711071014404, 0.003809511661529541, 9.915764808654785, -0.6496712565422058, 0.45715993642807007, 1.3183518648147583, -0.15035556256771088, 0.7743054032325745, -0.8427734375, -0.42236328125, -0.071533203125, 0, 
157, 341865624, 0.013156364671885967, 0.6884906888008118, -0.059004705399274826, 0.72272127866745, 1, 0.00010492745786905289, -0.000008145347237586975, 0.000052898190915584564, 0.08256781101226807, -0.005429267883300781, 0.00405353307723999, 9.908533096313477, -0.6515381336212158, 0.4864434003829956, 1.4429138898849487, -0.11201104521751404, 0.7274314165115356, -0.84423828125, -0.424560546875, -0.072998046875, 0, 
158, 341873957, 0.013074620626866817, 0.6884942054748535, -0.0589711032807827, 0.7227222323417664, 1, 0.0001009507104754448, -0.000007802620530128479, 0.00003728363662958145, 0.08236759901046753, -0.005548655986785889, 0.00389021635055542, 9.884506225585938, -0.6658653020858765, 0.4668445885181427, 1.3882274627685547, -0.10729802399873734, 0.5127072930335999, -0.8408203125, -0.42236328125, -0.068603515625, 0, 
159, 341882290, 0.01316918060183525, 0.6884740591049194, -0.05909263715147972, 0.7227297425270081, 1, 0.00012149475514888763, 0.000002032145857810974, 0.00004338100552558899, 0.08227503299713135, -0.005513012409210205, 0.003736555576324463, 9.873344421386719, -0.662257194519043, 0.44858455657958984, 1.6707398891448975, 0.027945132926106453, 0.5965555310249329, -0.8427734375, -0.42529296875, -0.069091796875, 0, 
160, 341890623, 0.013052360154688358, 0.6884723901748657, -0.05904332175850868, 0.7227375507354736, 1, 0.00013784784823656082, -0.0000013057142496109009, 0.00005233194679021835, 0.08230602741241455, -0.005557835102081299, 0.003953158855438232, 9.877071380615234, -0.6675857305526733, 0.4745064973831177, 1.8956197500228882, -0.017955578863620758, 0.7196446657180786, -0.84423828125, -0.422607421875, -0.070556640625, 0, 
161, 341898956, 0.01299217063933611, 0.6884725689888, -0.05902709811925888, 0.722739577293396, 1, 0.00014414172619581223, -0.00001148320734500885, 0.000050582922995090485, 0.0823514461517334, -0.005386233329772949, 0.003841221332550049, 9.882533073425293, -0.6469242572784424, 0.4609394669532776, 1.9821702241897583, -0.1579117625951767, 0.6955929398536682, -0.84375, -0.41943359375, -0.069091796875, 0, 
162, 341907289, 0.01285812258720398, 0.6884949803352356, -0.05896533280611038, 0.7227257490158081, 1, 0.00015912670642137527, -0.000034578144550323486, 0.000054634176194667816, 0.0823972225189209, -0.005405247211456299, 0.003947854042053223, 9.888041496276855, -0.6491251587867737, 0.4735203683376312, 2.188236713409424, -0.475502610206604, 0.7513038516044617, -0.8447265625, -0.421630859375, -0.070556640625, 0, 
163, 341915622, 0.012847619131207466, 0.6885280609130859, -0.058991532772779465, 0.7226922512054443, 1, 0.0001516425982117653, -0.00006263516843318939, 0.00004453491419553757, 0.08267003297805786, -0.005497872829437256, 0.00373154878616333, 9.920798301696777, -0.6601567268371582, 0.44726622104644775, 2.0853188037872314, -0.8613297939300537, 0.6124234795570374, -0.8466796875, -0.423095703125, -0.071533203125, 0, 
164, 341923955, 0.012735129334032536, 0.6885849833488464, -0.05892210081219673, 0.72264564037323, 1, 0.00014882255345582962, -0.0000806264579296112, 0.00003126729279756546, 0.08303624391555786, -0.005490601062774658, 0.0037202835083007812, 9.964762687683105, -0.6591451168060303, 0.44574233889579773, 2.046538829803467, -1.1087377071380615, 0.4299733340740204, -0.84423828125, -0.42138671875, -0.069091796875, 0, 
165, 341932288, 0.01278528943657875, 0.6886343359947205, -0.05896017700433731, 0.7225947976112366, 1, 0.00013896729797124863, -0.00008564628660678864, 0.000009209848940372467, 0.08299201726913452, -0.005457460880279541, 0.0038905739784240723, 9.959477424621582, -0.6549515128135681, 0.4660380184650421, 1.9110139608383179, -1.1777681112289429, 0.12664958834648132, -0.845703125, -0.422119140625, -0.069580078125, 0, 
166, 341940621, 0.01268894411623478, 0.6886765956878662, -0.058873020112514496, 0.7225632667541504, 1, 0.00015202444046735764, -0.00005862116813659668, 0.000008565373718738556, 0.08344966173171997, -0.006191551685333252, 0.0043441057205200195, 10.014387130737305, -0.7430232763290405, 0.5207827687263489, 2.0905699729919434, -0.8061311841011047, 0.11778705567121506, -0.84130859375, -0.4228515625, -0.068115234375, 0, 
167, 341948954, 0.012664761394262314, 0.6886763572692871, -0.05885668843984604, 0.722565233707428, 1, 0.0001767463982105255, -0.000013286247849464417, 0.00002651102840900421, 0.08278053998947144, -0.006801903247833252, 0.005110681056976318, 9.934048652648926, -0.8164048194885254, 0.6133176684379578, 2.430534839630127, -0.1827063411474228, 0.36456742882728577, -0.84521484375, -0.421630859375, -0.070556640625, 0, 
168, 341957287, 0.012479748576879501, 0.6886715888977051, -0.058766841888427734, 0.7225803136825562, 1, 0.00021830759942531586, 0.0000021494925022125244, 0.00007426738739013672, 0.0817384123802185, -0.0075817108154296875, 0.005023539066314697, 9.808924674987793, -0.9105105400085449, 0.6030951738357544, 3.0020649433135986, 0.029558824375271797, 1.021290898323059, -0.8427734375, -0.42333984375, -0.067626953125, 0, 
169, 341965620, 0.012377527542412281, 0.6886736750602722, -0.05881023406982422, 0.7225764989852905, 0.9999999403953552, 0.00028336886316537857, -0.00003257952630519867, 0.00012633297592401505, 0.08136677742004395, -0.008044898509979248, 0.00469517707824707, 9.76430892944336, -0.9664129614830017, 0.5634027719497681, 3.8967578411102295, -0.4480186402797699, 1.73727285861969, -0.84326171875, -0.42236328125, -0.066650390625, 0, 
170, 341973953, 0.012004234828054905, 0.6887001395225525, -0.05866843834519386, 0.7225692272186279, 0.9999998807907104, 0.0003855442628264427, -0.00004616938531398773, 0.00017240550369024277, 0.08098620176315308, -0.008415162563323975, 0.005427718162536621, 9.718588829040527, -1.0112709999084473, 0.6512932777404785, 5.3018269538879395, -0.6349000930786133, 2.3708407878875732, -0.84375, -0.421875, -0.068115234375, 0, 
171, 341982286, 0.011571926064789295, 0.6887222528457642, -0.05848398804664612, 0.7225700616836548, 0.9999998211860657, 0.0005376311019062996, -0.00005291588604450226, 0.00019672419875860214, 0.08151352405548096, -0.0074920654296875, 0.006303310394287109, 9.781878471374512, -0.900588870048523, 0.7563937902450562, 7.393255710601807, -0.7276749610900879, 2.705260753631592, -0.84423828125, -0.424560546875, -0.070068359375, 0, 
172, 341990619, 0.01101818960160017, 0.688776969909668, -0.05818207561969757, 0.7225511074066162, 0.9999997615814209, 0.0006262399256229401, -0.00008357595652341843, 0.00019083917140960693, 0.08145242929458618, -0.006737887859344482, 0.005921304225921631, 9.774584770202637, -0.8100366592407227, 0.7102665305137634, 8.611762046813965, -1.149298071861267, 2.6243321895599365, -0.8447265625, -0.42236328125, -0.066162109375, 0, 
173, 341998952, 0.010686221532523632, 0.6888498067855835, -0.05801995471119881, 0.7224996089935303, 0.9999997615814209, 0.0006850548088550568, -0.00013970863074064255, 0.0001424141228199005, 0.0827752947807312, -0.007007956504821777, 0.0056879520416259766, 9.9334077835083, -0.8419311046600342, 0.6817740797996521, 9.420557022094727, -1.9212086200714111, 1.9584133625030518, -0.84326171875, -0.421875, -0.066650390625, 0, 
174, 342007285, 0.01012365985661745, 0.6889619827270508, -0.05756712704896927, 0.7224371433258057, 0.9999997019767761, 0.0007399208843708038, -0.00015399232506752014, 0.0000894647091627121, 0.08398944139480591, -0.007199704647064209, 0.004940152168273926, 10.07914924621582, -0.8644519448280334, 0.5919496417045593, 10.175050735473633, -2.117631673812866, 1.2302775382995605, -0.84521484375, -0.42138671875, -0.064208984375, 0, 
175, 342015618, 0.009739196859300137, 0.6890445947647095, -0.05722744017839432, 0.7223904132843018, 0.9999997019767761, 0.0007936069741845131, -0.00014387443661689758, 0.00005303975194692612, 0.08381098508834839, -0.007943868637084961, 0.004118144512176514, 10.057741165161133, -0.9534441828727722, 0.4935041666030884, 10.913317680358887, -1.9784951210021973, 0.7293782234191895, -0.84423828125, -0.421875, -0.066650390625, 0, 
176, 342023951, 0.009176981635391712, 0.6891549229621887, -0.05665236711502075, 0.7223379611968994, 0.9999996423721313, 0.000829688273370266, -0.00014471635222434998, 0.000005227513611316681, 0.08228117227554321, -0.00825423002243042, 0.0038267970085144043, 9.874197006225586, -0.9902151226997375, 0.4586217999458313, 11.409489631652832, -1.99007248878479, 0.07188635319471359, -0.84619140625, -0.422119140625, -0.066650390625, 0, 
177, 342032284, 0.008706740103662014, 0.6892569065093994, -0.05608505383133888, 0.7222906351089478, 0.9999995827674866, 0.0008862167596817017, -0.00015279371291399002, -0.0000515645369887352, 0.08102256059646606, -0.008347868919372559, 0.0028232336044311523, 9.723198890686035, -1.000989556312561, 0.33820852637290955, 12.186843872070312, -2.101148843765259, -0.7090917229652405, -0.84521484375, -0.423583984375, -0.068115234375, 0, 
178, 342040617, 0.008139016106724739, 0.689376711845398, -0.05534166470170021, 0.7222403883934021, 0.9999995231628418, 0.0009562568739056587, -0.00014889240264892578, -0.00010715052485466003, 0.0805978775024414, -0.008121788501739502, 0.0027301907539367676, 9.672285079956055, -0.9732961654663086, 0.32712453603744507, 13.150003433227539, -2.047499656677246, -1.4734845161437988, -0.845947265625, -0.42041015625, -0.061279296875, 0, 
179, 342048950, 0.007828064262866974, 0.6894603371620178, -0.054797686636447906, 0.722205400466919, 0.999999463558197, 0.001039399765431881, -0.00014084577560424805, -0.0001414511352777481, 0.0810733437538147, -0.008190929889678955, 0.002783358097076416, 9.729377746582031, -0.9812086224555969, 0.33366331458091736, 14.29334545135498, -1.936846137046814, -1.9451708793640137, -0.846923828125, -0.424072265625, -0.063720703125, 0, 
180, 342057283, 0.007184908259660006, 0.6895683407783508, -0.05388475954532623, 0.7221777439117432, 0.9999993443489075, 0.0011328477412462234, -0.0001276666298508644, -0.0001687919721007347, 0.08220911026000977, -0.008103787899017334, 0.003146350383758545, 9.865701675415039, -0.9703801870346069, 0.3774169981479645, 15.57840347290039, -1.755612850189209, -2.3211498260498047, -0.842529296875, -0.42041015625, -0.059814453125, 0, 
181, 342065616, 0.006623312830924988, 0.6896619200706482, -0.05304466187953949, 0.7221556901931763, 0.9999992847442627, 0.0011998480185866356, -0.00013326480984687805, -0.00017859414219856262, 0.08302175998687744, -0.008248329162597656, 0.003298938274383545, 9.963238716125488, -0.9875834584236145, 0.3957473635673523, 16.499757766723633, -1.8325963020324707, -2.455944299697876, -0.843017578125, -0.42431640625, -0.061279296875, 0, 
182, 342073949, 0.005896192044019699, 0.6897788643836975, -0.05200920253992081, 0.7221256494522095, 0.9999991655349731, 0.0012811459600925446, -0.00013951491564512253, -0.0001930994912981987, 0.08374512195587158, -0.007948994636535645, 0.0033971071243286133, 10.050057411193848, -0.9514535665512085, 0.4074879586696625, 17.617733001708984, -1.9185452461242676, -2.6554157733917236, -0.843017578125, -0.423828125, -0.056884765625, 0, 
183, 342082282, 0.0052308859303593636, 0.6898725032806396, -0.05101793259382248, 0.7221121788024902, 0.9999990463256836, 0.0013388581573963165, -0.00012834742665290833, -0.00021325983107089996, 0.08358490467071533, -0.007116854190826416, 0.0033178329467773438, 10.030821800231934, -0.8513942360877991, 0.39801129698753357, 18.411361694335938, -1.76497483253479, -2.9326512813568115, -0.843994140625, -0.4228515625, -0.055908203125, 0, 
184, 342090615, 0.004459998104721308, 0.6899787187576294, -0.049889665096998215, 0.7220947742462158, 0.9999989867210388, 0.0013800133019685745, -0.0001248801127076149, -0.00022489484399557114, 0.08313596248626709, -0.006756901741027832, 0.003682434558868408, 9.976950645446777, -0.8080123662948608, 0.4417818784713745, 18.977310180664062, -1.7172940969467163, -3.092650890350342, -0.846435546875, -0.4267578125, -0.055908203125, 0, 
185, 342098948, 0.0037318686954677105, 0.6900802254676819, -0.04878752678632736, 0.7220771312713623, 0.9999989867210388, 0.0014034304767847061, -0.0001348145306110382, -0.0002498496323823929, 0.08251720666885376, -0.0062885284423828125, 0.003766179084777832, 9.9027099609375, -0.7515358924865723, 0.4516814053058624, 19.299333572387695, -1.853907585144043, -3.4358177185058594, -0.844970703125, -0.42431640625, -0.053466796875, 0, 
186, 342107281, 0.0029570425394922495, 0.6901965737342834, -0.04761200398206711, 0.7220479846000671, 0.999998927116394, 0.0014174189418554306, -0.000140397809445858, -0.0002550957724452019, 0.08201724290847778, -0.005851149559020996, 0.0035570263862609863, 9.84269905090332, -0.6990616321563721, 0.42647334933280945, 19.491695404052734, -1.930686354637146, -3.507960319519043, -0.843994140625, -0.42626953125, -0.053466796875, 0, 
187, 342115614, 0.002247406169772148, 0.6902831792831421, -0.04651212692260742, 0.7220394015312195, 0.999998927116394, 0.0014266874641180038, -0.00011938158422708511, -0.0002604154869914055, 0.08215761184692383, -0.005507171154022217, 0.0033600330352783203, 9.859525680541992, -0.6577466130256653, 0.4029846489429474, 19.61915397644043, -1.6416810750961304, -3.5811147689819336, -0.843505859375, -0.42431640625, -0.050048828125, 0, 
188, 342123947, 0.0014619750436395407, 0.6903563141822815, -0.04533091560006142, 0.7220466732978821, 0.999998927116394, 0.0014310451224446297, -0.00008451193571090698, -0.00024931319057941437, 0.08223897218704224, -0.00508648157119751, 0.003374040126800537, 9.869257926940918, -0.6073639392852783, 0.4049389958381653, 19.6790771484375, -1.1621694564819336, -3.428441286087036, -0.841552734375, -0.4287109375, -0.049072265625, 0, 
189, 342132280, 0.0007327373023144901, 0.690406858921051, -0.04423000290989876, 0.7220677137374878, 0.9999989867210388, 0.0014167223125696182, -0.00007175281643867493, -0.0002465005964040756, 0.08254653215408325, -0.004770934581756592, 0.003243863582611084, 9.906148910522461, -0.5695226788520813, 0.38937875628471375, 19.48211669921875, -0.986711859703064, -3.389763355255127, -0.843017578125, -0.427734375, -0.049072265625, 0, 
190, 342140613, -0.00006394217780325562, 0.6904615163803101, -0.04306064173579216, 0.7220864295959473, 0.999998927116394, 0.001431325450539589, -0.00006393063813447952, -0.00023209396749734879, 0.08307373523712158, -0.004485726356506348, 0.003710925579071045, 9.969400405883789, -0.5353443622589111, 0.4454611837863922, 19.682933807373047, -0.8791449069976807, -3.191650152206421, -0.841064453125, -0.4296875, -0.045166015625, 0, 
191, 342148946, -0.00078429194400087, 0.6905065774917603, -0.04197584092617035, 0.72210693359375, 0.999998927116394, 0.0014419881626963615, -0.00006995163857936859, -0.00023882463574409485, 0.0833858847618103, -0.004132091999053955, 0.004067361354827881, 10.006857872009277, -0.4927706718444824, 0.48811644315719604, 19.82956314086914, -0.9619429111480713, -3.2842071056365967, -0.841552734375, -0.43115234375, -0.046142578125, 0, 
192, 342157279, -0.0015815285732969642, 0.6905633211135864, -0.04080727696418762, 0.7221183180809021, 0.999998927116394, 0.0014311457052826881, -0.00007047131657600403, -0.0002312231808900833, 0.08360600471496582, -0.003838181495666504, 0.004396677017211914, 10.03326416015625, -0.4575115144252777, 0.5275729298591614, 19.680461883544922, -0.9690892100334167, -3.1796751022338867, -0.84228515625, -0.43017578125, -0.043212890625, 0, 
193, 342165612, -0.002288240473717451, 0.690615713596344, -0.03974490240216255, 0.7221257090568542, 0.9999989867210388, 0.0013949479907751083, -0.00008259061723947525, -0.00023263413459062576, 0.08352798223495483, -0.0038646459579467773, 0.004035830497741699, 10.023904800415039, -0.4607837200164795, 0.48413774371147156, 19.182689666748047, -1.1357485055923462, -3.1990787982940674, -0.84228515625, -0.4296875, -0.042236328125, 0, 
194, 342173945, -0.003050840925425291, 0.6906808018684387, -0.03862764686346054, 0.7221213579177856, 0.9999990463256836, 0.001370403915643692, -0.0000860234722495079, -0.00022124033421278, 0.08302515745162964, -0.00373685359954834, 0.003878295421600342, 9.963556289672852, -0.44559425115585327, 0.46516960859298706, 18.84516716003418, -1.182955265045166, -3.042395830154419, -0.841796875, -0.43017578125, -0.043212890625, 0, 
195, 342182278, -0.0037363620940595865, 0.6907361745834351, -0.03759550675749779, 0.7221192717552185, 0.9999990463256836, 0.0013412293046712875, -0.00009006727486848831, -0.00022565480321645737, 0.08234268426895142, -0.0033989548683166504, 0.004038870334625244, 9.881650924682617, -0.4050268828868866, 0.48434168100357056, 18.443971633911133, -1.238563895225525, -3.1031012535095215, -0.84228515625, -0.43408203125, -0.039794921875, 0, 
196, 342190611, -0.004440627992153168, 0.6908084750175476, -0.0365477055311203, 0.7220999002456665, 0.9999991655349731, 0.0012799128890037537, -0.00009916815906763077, -0.00021554995328187943, 0.08196395635604858, -0.0030551552772521973, 0.004085659980773926, 9.83619499206543, -0.3638788163661957, 0.4897901117801666, 17.60077476501465, -1.3637151718139648, -2.964144229888916, -0.84033203125, -0.43603515625, -0.039306640625, 0, 
197, 342198944, -0.005033309571444988, 0.6908746957778931, -0.03563165292143822, 0.7220783829689026, 0.9999992251396179, 0.0012217909097671509, -0.00010940898209810257, -0.00020920950919389725, 0.08152717351913452, -0.0025940537452697754, 0.0044092535972595215, 9.783774375915527, -0.30860379338264465, 0.5284397006034851, 16.801509857177734, -1.5045421123504639, -2.876953363418579, -0.83837890625, -0.4326171875, -0.038330078125, 0, 
198, 342207277, -0.005674757994711399, 0.6909725069999695, -0.03466242551803589, 0.7220272421836853, 0.9999992847442627, 0.0011788122355937958, -0.00013693887740373611, -0.0002074381336569786, 0.0814814567565918, -0.002396106719970703, 0.004244744777679443, 9.778297424316406, -0.28489962220191956, 0.5083826184272766, 16.21048355102539, -1.8831207752227783, -2.8525938987731934, -0.83740234375, -0.4365234375, -0.037841796875, 0, 
199, 342215610, -0.006279747933149338, 0.6910855770111084, -0.0337308906018734, 0.7219582796096802, 0.9999992847442627, 0.0011464189738035202, -0.00017190445214509964, -0.00021330732852220535, 0.08211058378219604, -0.0021837949752807617, 0.004356205463409424, 9.85381031036377, -0.25934314727783203, 0.5213596224784851, 15.765026092529297, -2.3639512062072754, -2.9333040714263916, -0.83984375, -0.435546875, -0.035400390625, 0, 
200, 342223943, -0.0068803513422608376, 0.6912143230438232, -0.03278660774230957, 0.7218731045722961, 0.9999993443489075, 0.001131654717028141, -0.0001812707632780075, -0.0002205967903137207, 0.08281302452087402, -0.0025426149368286133, 0.00412142276763916, 9.938118934631348, -0.3023568391799927, 0.49312400817871094, 15.561995506286621, -2.4927523136138916, -3.03354549407959, -0.84228515625, -0.4326171875, -0.037353515625, 0, 
201, 342232276, -0.0074370368383824825, 0.6913307309150696, -0.031864143908023834, 0.7217972874641418, 0.9999993443489075, 0.0011156126856803894, -0.00017878692597150803, -0.00023806001991033554, 0.08323192596435547, -0.003116428852081299, 0.004312455654144287, 9.98841381072998, -0.3710142970085144, 0.5161375999450684, 15.34139347076416, -2.4585957527160645, -3.2736923694610596, -0.83935546875, -0.4365234375, -0.031982421875, 0, 
202, 342240609, -0.007986977696418762, 0.6914507746696472, -0.030918410047888756, 0.7217175364494324, 0.9999993443489075, 0.0010983441025018692, -0.00016964692622423172, -0.00025779474526643753, 0.08321928977966309, -0.003651916980743408, 0.004139602184295654, 9.986912727355957, -0.4351043999195099, 0.49554935097694397, 15.103925704956055, -2.332906723022461, -3.5450751781463623, -0.83935546875, -0.43359375, -0.027587890625, 0, 
203, 342248942, -0.008398346602916718, 0.6915624141693115, -0.030069515109062195, 0.7216418385505676, 0.9999993443489075, 0.001069946214556694, -0.00017683673650026321, -0.0002846596762537956, 0.0829010009765625, -0.0040680766105651855, 0.003930866718292236, 9.948740005493164, -0.48486679792404175, 0.47049015760421753, 14.713407516479492, -2.4317774772644043, -3.9145090579986572, -0.83935546875, -0.435546875, -0.031494140625, 0, 
204, 342257275, -0.008885407820343971, 0.6916922926902771, -0.029132869094610214, 0.7215500473976135, 0.9999994039535522, 0.0010482128709554672, -0.00018310640007257462, -0.00029716361314058304, 0.08249431848526001, -0.004334151744842529, 0.00393754243850708, 9.899955749511719, -0.5166786313056946, 0.4712539613246918, 14.41454029083252, -2.5179948806762695, -4.086457252502441, -0.83984375, -0.43505859375, -0.030029296875, 0, 
205, 342265608, -0.009251344949007034, 0.691819965839386, -0.028299599885940552, 0.7214561700820923, 0.9999994039535522, 0.001020677387714386, -0.00019946973770856857, -0.00030604470521211624, 0.08237367868423462, -0.004298746585845947, 0.0037363171577453613, 9.885482788085938, -0.5124260783195496, 0.44694557785987854, 14.035887718200684, -2.743016481399536, -4.2085862159729, -0.84228515625, -0.43896484375, -0.031494140625, 0, 
206, 342273941, -0.009703057818114758, 0.6919642686843872, -0.027388764545321465, 0.7213470339775085, 0.9999994039535522, 0.001004883088171482, -0.00020436570048332214, -0.0003051646053791046, 0.0820574164390564, -0.003809690475463867, 0.003865063190460205, 9.847516059875488, -0.45374760031700134, 0.46228843927383423, 13.81868839263916, -2.810342788696289, -4.1964826583862305, -0.8408203125, -0.4384765625, -0.026123046875, 0, 
207, 342282274, -0.010008827783167362, 0.69208163022995, -0.026615915820002556, 0.7212589979171753, 0.999999463558197, 0.0009842338040471077, -0.00018833205103874207, -0.00030538253486156464, 0.08210837841033936, -0.003387153148651123, 0.004055440425872803, 9.853616714477539, -0.40297019481658936, 0.48520907759666443, 13.534729957580566, -2.589855432510376, -4.199479579925537, -0.839111328125, -0.439453125, -0.024658203125, 0, 
208, 342290607, -0.010441595688462257, 0.6922193765640259, -0.025713851675391197, 0.7211534380912781, 0.999999463558197, 0.0009860685095191002, -0.00019641220569610596, -0.0003124270588159561, 0.08203071355819702, -0.0033063292503356934, 0.003722071647644043, 9.844289779663086, -0.39327847957611084, 0.4451310932636261, 13.559959411621094, -2.700969934463501, -4.296352386474609, -0.839599609375, -0.4404296875, -0.025146484375, 0, 
209, 342298940, -0.010835425928235054, 0.6923372149467468, -0.024870386347174644, 0.7210639715194702, 0.999999463558197, 0.0009686807170510292, -0.00018666498363018036, -0.0002947486937046051, 0.08232051134109497, -0.002965688705444336, 0.0035950541496276855, 9.879042625427246, -0.3525274991989136, 0.4299049973487854, 13.32085132598877, -2.5669310092926025, -4.053248405456543, -0.839111328125, -0.439697265625, -0.022216796875, 0, 
210, 342307273, -0.01128001045435667, 0.692473828792572, -0.02399967797100544, 0.720955491065979, 0.999999463558197, 0.0009725978597998619, -0.00019779987633228302, -0.00028213299810886383, 0.08260035514831543, -0.0030216574668884277, 0.003641366958618164, 9.912628173828125, -0.3593675196170807, 0.4353598654270172, 13.37471866607666, -2.72005295753479, -3.879763126373291, -0.840087890625, -0.4404296875, -0.024658203125, 0, 
211, 342315606, -0.011737295426428318, 0.6925790309906006, -0.023141682147979736, 0.7208752036094666, 0.999999463558197, 0.0009762030094861984, -0.0001706322655081749, -0.0002591898664832115, 0.08283138275146484, -0.0031864047050476074, 0.0034545063972473145, 9.940332412719727, -0.3794207274913788, 0.41324156522750854, 13.424295425415039, -2.34645676612854, -3.564260244369507, -0.839599609375, -0.44287109375, -0.022216796875, 0, 
212, 342323939, -0.012207124382257462, 0.6926754713058472, -0.022302968427538872, 0.7208013534545898, 0.999999463558197, 0.0009684152901172638, -0.0001450134441256523, -0.0002412097528576851, 0.08292782306671143, -0.0032833218574523926, 0.0034809112548828125, 9.951891899108887, -0.3912200331687927, 0.4166676998138428, 13.3172025680542, -1.9941582679748535, -3.3170058727264404, -0.837158203125, -0.444091796875, -0.024169921875, 0, 
213, 342332272, -0.012634658254683018, 0.6927388906478882, -0.021515917032957077, 0.7207567691802979, 0.9999995231628418, 0.0009608101099729538, -0.00011703185737133026, -0.00022759288549423218, 0.08310079574584961, -0.0034619569778442383, 0.0034903883934020996, 9.972636222839355, -0.41279342770576477, 0.41809898614883423, 13.21261978149414, -1.6093684434890747, -3.1297528743743896, -0.837646484375, -0.442138671875, -0.018798828125, 0, 
214, 342340605, -0.013128974474966526, 0.6928112506866455, -0.020708128809928894, 0.720702052116394, 0.9999995231628418, 0.0009637167677283287, -0.00011457130312919617, -0.00020174309611320496, 0.08329856395721436, -0.0037369132041931152, 0.0031479597091674805, 9.99636173248291, -0.4460647702217102, 0.37705615162849426, 13.252589225769043, -1.5755317211151123, -2.774277925491333, -0.838134765625, -0.442626953125, -0.018310546875, 0, 
215, 342348938, -0.01360683236271143, 0.6928697228431702, -0.019952408969402313, 0.7206584215164185, 0.9999995231628418, 0.0009676516056060791, -0.00011302623897790909, -0.00016878824681043625, 0.08353549242019653, -0.0037634968757629395, 0.0034183859825134277, 10.024782180786133, -0.44953638315200806, 0.4095219373703003, 13.3066987991333, -1.554284691810608, -2.3210980892181396, -0.839111328125, -0.444091796875, -0.019287109375, 0, 
216, 342357271, -0.014149175025522709, 0.6929122805595398, -0.01916120946407318, 0.720628559589386, 0.9999995231628418, 0.0009865183383226395, -0.00007674563676118851, -0.00015533994883298874, 0.08356863260269165, -0.003756582736968994, 0.0034254789352416992, 10.028738021850586, -0.44882506132125854, 0.41074493527412415, 13.566146850585938, -1.0553706884384155, -2.1361637115478516, -0.838134765625, -0.443603515625, -0.017333984375, 0, 
217, 342365604, -0.014585832133889198, 0.6929044127464294, -0.018492385745048523, 0.7206448316574097, 0.9999995231628418, 0.0009925980120897293, -0.00002664513885974884, -0.00013322383165359497, 0.08333593606948853, -0.0037214159965515137, 0.0031309127807617188, 10.000782012939453, -0.4448661804199219, 0.3759025037288666, 13.649751663208008, -0.3664116859436035, -1.8320327997207642, -0.838623046875, -0.443603515625, -0.015869140625, 0, 
218, 342373937, -0.015153597109019756, 0.6928907632827759, -0.017748694866895676, 0.7206649780273438, 0.9999995231628418, 0.000971747562289238, -0.000001491047441959381, -0.00010376330465078354, 0.08268505334854126, -0.003291904926300049, 0.002763807773590088, 9.92264461517334, -0.39369431138038635, 0.3320382535457611, 13.363024711608887, -0.020504198968410492, -1.4269051551818848, -0.835693359375, -0.447021484375, -0.016357421875, 0, 
219, 342382270, -0.01566792093217373, 0.6928732991218567, -0.0170566588640213, 0.7206873893737793, 0.9999995231628418, 0.0009534107521176338, -0.000011881813406944275, -0.00009711459279060364, 0.08255916833877563, -0.00290602445602417, 0.0027347803115844727, 9.907533645629883, -0.34745433926582336, 0.3284022808074951, 13.110864639282227, -0.16339321434497833, -1.335474967956543, -0.834716796875, -0.447021484375, -0.013916015625, 0, 
220, 342390603, -0.01619364321231842, 0.692848265171051, -0.01634342409670353, 0.7207164168357849, 0.9999995827674866, 0.0009216191247105598, 0.000014009885489940643, -0.00011295266449451447, 0.08255738019943237, -0.002619326114654541, 0.002760946750640869, 9.90731143951416, -0.3129040002822876, 0.33175593614578247, 12.673681259155273, 0.1926574856042862, -1.5532729625701904, -0.835205078125, -0.446533203125, -0.012939453125, 0, 
221, 342398936, -0.016602903604507446, 0.692794919013977, -0.015709178522229195, 0.7207725644111633, 0.9999995827674866, 0.000889820046722889, 0.000038613565266132355, -0.0001299157738685608, 0.08260184526443481, -0.002846837043762207, 0.0025270581245422363, 9.912649154663086, -0.34008675813674927, 0.30394065380096436, 12.236394882202148, 0.5309959053993225, -1.7865417003631592, -0.833251953125, -0.443603515625, -0.014404296875, 0, 
222, 342407269, -0.01705973781645298, 0.6927497982978821, -0.015006902627646923, 0.7208202481269836, 0.9999996423721313, 0.0008669178932905197, 0.00004269741475582123, -0.00015476904809474945, 0.08266514539718628, -0.002839028835296631, 0.002617359161376953, 9.920252799987793, -0.3388950228691101, 0.31481191515922546, 11.921454429626465, 0.5871551632881165, -2.128312349319458, -0.837158203125, -0.447509765625, -0.015380859375, 0, 
223, 342415602, -0.017419591546058655, 0.6926872730255127, -0.01438118051737547, 0.7208842039108276, 0.9999996423721313, 0.0008369795978069305, 0.000053413212299346924, -0.00015902984887361526, 0.08248728513717651, -0.002786874771118164, 0.0028914213180541992, 9.898903846740723, -0.33260783553123474, 0.34777766466140747, 11.509757041931152, 0.7345138788223267, -2.1869051456451416, -0.835693359375, -0.444091796875, -0.0087890625, 0, 
224, 342423935, -0.01782829314470291, 0.6926416158676147, -0.013716215267777443, 0.7209311127662659, 0.9999996423721313, 0.000806925818324089, 0.000043896958231925964, -0.00016353745013475418, 0.0823710560798645, -0.0031017065048217773, 0.0029757022857666016, 9.884965896606445, -0.37029892206192017, 0.3578384518623352, 11.09647274017334, 0.6036508083343506, -2.248891592025757, -0.836669921875, -0.447998046875, -0.01171875, 0, 
225, 342432268, -0.01818826049566269, 0.6925832629203796, -0.013079637661576271, 0.7209901213645935, 0.9999997019767761, 0.0007718577980995178, 0.00005050189793109894, -0.00016781222075223923, 0.08241605758666992, -0.0028267502784729004, 0.003057241439819336, 9.890360832214355, -0.3372823894023895, 0.3676435947418213, 10.614232063293457, 0.6944788098335266, -2.307676076889038, -0.838623046875, -0.447021484375, -0.01025390625, 0, 
226, 342440601, -0.018543634563684464, 0.6925243735313416, -0.01245223730802536, 0.7210487723350525, 0.9999997019767761, 0.0007438883185386658, 0.00006269104778766632, -0.0001760600134730339, 0.08281362056732178, -0.0026823878288269043, 0.0031539201736450195, 9.938064575195312, -0.31984108686447144, 0.37935876846313477, 10.229609489440918, 0.8620983958244324, -2.421096086502075, -0.836181640625, -0.446533203125, -0.0107421875, 0, 
227, 342448934, -0.01887713186442852, 0.6924591064453125, -0.011851372197270393, 0.7211129665374756, 0.9999997019767761, 0.0007127262651920319, 0.00006164982914924622, -0.00016220007091760635, 0.08285433053970337, -0.002268850803375244, 0.003122568130493164, 9.942937850952148, -0.2703987956047058, 0.37552744150161743, 9.801082611083984, 0.8477799892425537, -2.2305004596710205, -0.837158203125, -0.450439453125, -0.01123046875, 0, 
228, 342457267, -0.01920638047158718, 0.6923914551734924, -0.011275999248027802, 0.7211786508560181, 0.9999997615814209, 0.0006884206086397171, 0.00007536821067333221, -0.0001589050516486168, 0.08310103416442871, -0.0018804669380187988, 0.0035074353218078613, 9.972526550292969, -0.22378385066986084, 0.42181897163391113, 9.466841697692871, 1.0364288091659546, -2.1851887702941895, -0.834716796875, -0.447998046875, -0.012939453125, 0, 
229, 342465600, -0.01946781575679779, 0.6923080682754517, -0.01077419426292181, 0.7212591171264648, 0.9999997615814209, 0.0006631724536418915, 0.00008638575673103333, -0.00014152098447084427, 0.08284610509872437, -0.001756131649017334, 0.0038361549377441406, 9.941919326782227, -0.20899680256843567, 0.46137574315071106, 9.11964225769043, 1.1879371404647827, -1.9461313486099243, -0.836669921875, -0.447998046875, -0.0107421875, 0, 
230, 342473933, -0.019797634333372116, 0.692243218421936, -0.010265114717185497, 0.7213199734687805, 0.9999997615814209, 0.0006410796195268631, 0.00007123127579689026, -0.00011247862130403519, 0.0826687216758728, -0.0017210841178894043, 0.004194736480712891, 9.92063045501709, -0.20513808727264404, 0.5042047500610352, 8.81583023071289, 0.9795395135879517, -1.546754002571106, -0.835205078125, -0.447998046875, -0.01171875, 0, 
231, 342482266, -0.020011579617857933, 0.6921753883361816, -0.009888449683785439, 0.7213842272758484, 0.9999998211860657, 0.0005997698754072189, 0.00006423145532608032, -0.00008453149348497391, 0.08198577165603638, -0.0018094778060913086, 0.004346072673797607, 9.83867073059082, -0.21604271233081818, 0.522284209728241, 8.247756958007812, 0.8832812309265137, -1.1624380350112915, -0.8349609375, -0.449462890625, -0.0068359375, 0, 
232, 342490599, -0.02033478394150734, 0.6921250820159912, -0.00947241298854351, 0.7214291095733643, 0.9999998211860657, 0.0005694180727005005, 0.00005143694579601288, -0.000052607618272304535, 0.08139657974243164, -0.0021598339080810547, 0.0044291019439697266, 9.767965316772461, -0.2583783268928528, 0.5321597456932068, 7.830375671386719, 0.7073372006416321, -0.7234357595443726, -0.833251953125, -0.447998046875, -0.009765625, 0, 
233, 342498932, -0.020635951310396194, 0.6920732855796814, -0.009113690815865993, 0.7214747667312622, 0.9999998807907104, 0.0005391091108322144, 0.000042436644434928894, -0.00001118052750825882, 0.08068293333053589, -0.002384364604949951, 0.0044751763343811035, 9.682318687438965, -0.28572988510131836, 0.5376182198524475, 7.41357946395874, 0.5835691094398499, -0.15374945104122162, -0.833740234375, -0.446533203125, -0.00732421875, 0, 
234, 342507265, -0.020962705835700035, 0.6920554041862488, -0.008781887590885162, 0.7214866280555725, 0.9999998807907104, 0.0005108565092086792, 0.00000692903995513916, 0.000008884817361831665, 0.08037799596786499, -0.002590358257293701, 0.0043547749519348145, 9.645737648010254, -0.3106691539287567, 0.5228255987167358, 7.0250630378723145, 0.09528496116399765, 0.12217990309000015, -0.834716796875, -0.451416015625, -0.00927734375, 0, 
235, 342515598, -0.0212374459952116, 0.6920574903488159, -0.00851369183510542, 0.7214797735214233, 0.9999998807907104, 0.0004775356501340866, -0.00003277044743299484, 0.000034982338547706604, 0.08074313402175903, -0.0027357935905456543, 0.004176974296569824, 9.689568519592285, -0.3284114599227905, 0.5010905861854553, 6.566849708557129, -0.45064404606819153, 0.4810609519481659, -0.833740234375, -0.449951171875, -0.00732421875, 0, 
236, 342523931, -0.021570634096860886, 0.6921016573905945, -0.008246684446930885, 0.7214307188987732, 0.9999998807907104, 0.0004667360335588455, -0.00007867906242609024, 0.00005904771387577057, 0.08129638433456421, -0.002970576286315918, 0.004205524921417236, 9.755975723266602, -0.3568405508995056, 0.5040532946586609, 6.418338298797607, -1.0819580554962158, 0.8119968771934509, -0.833984375, -0.449951171875, -0.0068359375, 0, 
237, 342532264, -0.02184353582561016, 0.6921626925468445, -0.008041570894420147, 0.7213662266731262, 0.9999998807907104, 0.00044135190546512604, -0.00011485721915960312, 0.00007907859981060028, 0.08205229043960571, -0.0030722618103027344, 0.004556477069854736, 9.846700668334961, -0.3692093789577484, 0.5458562970161438, 6.069267272949219, -1.5794634819030762, 1.0874522924423218, -0.833251953125, -0.448974609375, -0.0068359375, 0, 
238, 342540597, -0.022175967693328857, 0.6922423839569092, -0.007827208377420902, 0.7212821841239929, 0.9999998807907104, 0.0004274863749742508, -0.00012755300849676132, 0.00009559653699398041, 0.08259069919586182, -0.003127574920654297, 0.003858506679534912, 9.91130256652832, -0.37607520818710327, 0.46193307638168335, 5.87859582901001, -1.7540501356124878, 1.3145995140075684, -0.833251953125, -0.447998046875, -0.00732421875, 0, 
239, 342548930, -0.022404072806239128, 0.69230717420578, -0.007713424973189831, 0.7212138772010803, 0.9999998807907104, 0.0004078596830368042, -0.00012144353240728378, 0.00011270865797996521, 0.08288878202438354, -0.0027379393577575684, 0.003719329833984375, 9.94706916809082, -0.32957667112350464, 0.445181280374527, 5.60869836807251, -1.6700356006622314, 1.5499175786972046, -0.832275390625, -0.449951171875, -0.00927734375, 0, 
240, 342557263, -0.02271866612136364, 0.6923748850822449, -0.007572655100375414, 0.7211405038833618, 0.9999999403953552, 0.0003628581762313843, -0.00010980479419231415, 0.00013351254165172577, 0.08278131484985352, -0.0027124881744384766, 0.003680586814880371, 9.934159278869629, -0.3265873193740845, 0.4407910704612732, 4.9898576736450195, -1.5099847316741943, 1.8360027074813843, -0.8330078125, -0.447509765625, -0.00390625, 0, 
241, 342565596, -0.022903956472873688, 0.6924307346343994, -0.007563180290162563, 0.721081018447876, 0.9999999403953552, 0.00030929502099752426, -0.0001057647168636322, 0.00015421491116285324, 0.08258146047592163, -0.002593994140625, 0.003674447536468506, 9.91016960144043, -0.31256192922592163, 0.44008269906044006, 4.253282070159912, -1.4544275999069214, 2.120692491531372, -0.8330078125, -0.448486328125, -0.00634765625, 0, 
242, 342573929, -0.02317836694419384, 0.6925009489059448, -0.007520090788602829, 0.721005380153656, 0.9999999403953552, 0.0002649892121553421, -0.0001107221469283104, 0.00017239339649677277, 0.08248895406723022, -0.0027145743370056152, 0.003553330898284912, 9.899060249328613, -0.3274551331996918, 0.4253440499305725, 3.6440093517303467, -1.5225998163223267, 2.3706743717193604, -0.8349609375, -0.446044921875, -0.00390625, 0, 
243, 342582262, -0.02336510829627514, 0.6925814151763916, -0.00757896713912487, 0.7209215760231018, 0.9999999403953552, 0.00021363608539104462, -0.00013769138604402542, 0.0002020169049501419, 0.08249169588088989, -0.002833068370819092, 0.0036301016807556152, 9.899389266967773, -0.34213802218437195, 0.43417003750801086, 2.9378249645233154, -1.8934684991836548, 2.778043031692505, -0.83251953125, -0.448974609375, -0.0048828125, 0, 
244, 342590595, -0.02360566332936287, 0.6926841735839844, -0.007641597185283899, 0.7208144068717957, 0.9999999403953552, 0.00016534514725208282, -0.00015340838581323624, 0.00022166594862937927, 0.08277392387390137, -0.002835214138031006, 0.00401681661605835, 9.933266639709473, -0.3421365022659302, 0.4807252287864685, 2.273750066757202, -2.1096012592315674, 3.048247814178467, -0.8349609375, -0.447021484375, -0.00390625, 0, 
245, 342598928, -0.023662595078349113, 0.6927867531776428, -0.007857098244130611, 0.7207114696502686, 0.9999999403953552, 0.0001222454011440277, -0.00016727391630411148, 0.0002223290503025055, 0.0831289291381836, -0.0026527047157287598, 0.004319608211517334, 9.975885391235352, -0.3204229176044464, 0.5167957544326782, 1.6810622215270996, -2.3002734184265137, 3.057366132736206, -0.83544921875, -0.446533203125, -0.0048828125, 0, 
246, 342607261, -0.023834602907299995, 0.6929088830947876, -0.007984142750501633, 0.7205870151519775, 0.9999999403953552, 0.00007152743637561798, -0.00017749052494764328, 0.0002172458916902542, 0.08325392007827759, -0.0028499364852905273, 0.004334151744842529, 9.990888595581055, -0.34428155422210693, 0.51825350522995, 0.9836121201515198, -2.440767288208008, 2.9874649047851562, -0.834228515625, -0.447509765625, -0.01025390625, 0, 
247, 342615594, -0.023849932476878166, 0.6930173635482788, -0.008198647759854794, 0.7204797267913818, 0.9999999403953552, 0.00002563558518886566, -0.00017204973846673965, 0.00018968991935253143, 0.08355236053466797, -0.002658843994140625, 0.00407332181930542, 10.026704788208008, -0.3207741975784302, 0.48727327585220337, 0.35252872109413147, -2.365948438644409, 2.6085281372070312, -0.837158203125, -0.445556640625, -0.0087890625, 0, 
248, 342623927, -0.023914402350783348, 0.6931411027908325, -0.008356945589184761, 0.7203567624092102, 1, -0.00002488400787115097, -0.0001761382445693016, 0.00016147270798683167, 0.08339941501617432, -0.002800583839416504, 0.003958702087402344, 10.008360862731934, -0.33776459097862244, 0.473234087228775, -0.3421933948993683, -2.4221718311309814, 2.2204980850219727, -0.832275390625, -0.445556640625, -0.0078125, 0, 
249, 342632260, -0.023800065740942955, 0.6932441592216492, -0.008633946999907494, 0.7202581763267517, 1, -0.00008525978773832321, -0.00016024615615606308, 0.00014058873057365417, 0.0834854245185852, -0.0026280879974365234, 0.0037370920181274414, 10.018682479858398, -0.31701910495758057, 0.4466232657432556, -1.1724530458450317, -2.2036309242248535, 1.933311104774475, -0.835693359375, -0.445068359375, -0.0087890625, 0, 
250, 342640593, -0.023763660341501236, 0.6933530569076538, -0.008860194124281406, 0.7201518416404724, 0.9999999403953552, -0.00014267582446336746, -0.00015143025666475296, 0.00013561733067035675, 0.08360904455184937, -0.0026077628135681152, 0.003777146339416504, 10.033512115478516, -0.31432124972343445, 0.4517640769481659, -1.9620121717453003, -2.0823988914489746, 1.8649468421936035, -0.834228515625, -0.444580078125, -0.00830078125, 0, 
251, 342648926, -0.02344096451997757, 0.6934248805046082, -0.009336486458778381, 0.7200871706008911, 0.9999999403953552, -0.00019180867820978165, -0.00011637713760137558, 0.0001358184963464737, 0.08344709873199463, -0.0022679567337036133, 0.004155099391937256, 10.014069557189941, -0.2734270393848419, 0.4975764751434326, -2.637664556503296, -1.6003648042678833, 1.8677133321762085, -0.8359375, -0.447021484375, -0.00537109375, 0, 
252, 342657259, -0.02333599142730236, 0.6934981942176819, -0.009651672095060349, 0.7200157642364502, 0.9999999403953552, -0.00025184545665979385, -0.0000991644337773323, 0.00014751777052879333, 0.08309352397918701, -0.0018056035041809082, 0.004195809364318848, 9.971636772155762, -0.2181844562292099, 0.5025354623794556, -3.4632620811462402, -1.3636635541915894, 2.0285964012145996, -0.834228515625, -0.445068359375, -0.00537109375, 0, 
253, 342665592, -0.02308615855872631, 0.693544864654541, -0.010102923028171062, 0.7199726700782776, 0.9999999403953552, -0.0003069201484322548, -0.00007802899926900864, 0.0001654159277677536, 0.08308428525924683, -0.001384735107421875, 0.0046114325523376465, 9.970527648925781, -0.16787347197532654, 0.5526193380355835, -4.220623970031738, -1.0730187892913818, 2.274723529815674, -0.836181640625, -0.444091796875, -0.0087890625, 0, 
254, 342673925, -0.02292146161198616, 0.6935883164405823, -0.010518357157707214, 0.7199301719665527, 0.9999999403953552, -0.00036317575722932816, -0.00005485955625772476, 0.00017370842397212982, 0.08286440372467041, -0.0011901259422302246, 0.004392385482788086, 9.944129943847656, -0.14489911496639252, 0.5264596939086914, -4.99422550201416, -0.7544032335281372, 2.3887579441070557, -0.841064453125, -0.447265625, -0.01025390625, 0, 
255, 342682258, -0.02258608676493168, 0.6935976147651672, -0.011079574003815651, 0.7199233770370483, 0.9999998807907104, -0.0004198150709271431, -0.000024347566068172455, 0.00018245726823806763, 0.08278268575668335, -0.0009554028511047363, 0.004229247570037842, 9.934309959411621, -0.11666398495435715, 0.5072418451309204, -5.773103713989258, -0.3348165452480316, 2.509068489074707, -0.833740234375, -0.445556640625, -0.00732421875, 0, 
256, 342690591, -0.022317927330732346, 0.6936025023460388, -0.011593754403293133, 0.7199191451072693, 0.9999998807907104, -0.0005039656534790993, 0.000002678483724594116, 0.00016741082072257996, 0.08270263671875, -0.0012170672416687012, 0.003986835479736328, 9.924688339233398, -0.1478634476661682, 0.47839418053627014, -6.93030309677124, 0.0368332713842392, 2.3021562099456787, -0.839111328125, -0.443115234375, -0.0107421875, 0, 
257, 342698924, -0.021872002631425858, 0.6935771107673645, -0.012207046151161194, 0.7199468016624451, 0.9999998211860657, -0.0005792500451207161, 0.000027164816856384277, 0.0001401752233505249, 0.08265894651412964, -0.0016052722930908203, 0.0039864182472229, 9.919429779052734, -0.19431601464748383, 0.4785473644733429, -7.965578556060791, 0.373557984828949, 1.9276247024536133, -0.836181640625, -0.443603515625, -0.01025390625, 0, 
258, 342707257, -0.021469691768288612, 0.6935584545135498, -0.012801612727344036, 0.7199666500091553, 0.9999997615814209, -0.0006530033424496651, 0.00003966502845287323, 0.00012639909982681274, 0.08293372392654419, -0.0021961331367492676, 0.003847181797027588, 9.952392578125, -0.26511678099632263, 0.46190404891967773, -8.979801177978516, 0.5454552173614502, 1.7381823062896729, -0.838623046875, -0.443603515625, -0.01171875, 0, 
259, 342715590, -0.020856838673353195, 0.6935243010520935, -0.013511157594621181, 0.720004677772522, 0.9999997615814209, -0.000700012780725956, 0.00004104524850845337, 0.00009125843644142151, 0.08276301622390747, -0.002484738826751709, 0.0036823153495788574, 9.931912422180176, -0.2994123697280884, 0.44209685921669006, -9.626252174377441, 0.5644352436065674, 1.25494384765625, -0.840087890625, -0.441162109375, -0.01123046875, 0, 
260, 342723923, -0.020361805334687233, 0.6934993267059326, -0.014128155075013638, 0.7200311422348022, 0.9999997019767761, -0.0007324786856770515, 0.0000502169132232666, 0.00007529184222221375, 0.08280724287033081, -0.0029755234718322754, 0.004197299480438232, 9.937214851379395, -0.3581772744655609, 0.5039295554161072, -10.072710037231445, 0.6905598044395447, 1.0353786945343018, -0.836669921875, -0.442626953125, -0.012939453125, 0, 
261, 342732256, -0.019722770899534225, 0.693454921245575, -0.014809838496148586, 0.7200778126716614, 0.9999997019767761, -0.0007478920742869377, 0.000055709853768348694, 0.000052871182560920715, 0.08289796113967896, -0.0028631091117858887, 0.004239320755004883, 9.948105812072754, -0.34449490904808044, 0.5090363025665283, -10.28466796875, 0.7660962343215942, 0.7270601391792297, -0.837646484375, -0.444580078125, -0.013916015625, 0, 
262, 342740589, -0.019195513799786568, 0.6934195756912231, -0.015450650826096535, 0.720112681388855, 0.9999997019767761, -0.0007706759497523308, 0.00006432086229324341, 0.00006867386400699615, 0.08255964517593384, -0.002960503101348877, 0.00414121150970459, 9.90749740600586, -0.3563261032104492, 0.4973244071006775, -10.597979545593262, 0.8845108151435852, 0.9443713426589966, -0.839599609375, -0.442626953125, -0.01025390625, 0, 
263, 342748922, -0.018522560596466064, 0.6933678388595581, -0.01622447744011879, 0.7201630473136902, 0.9999997019767761, -0.0007948623970150948, 0.00006285868585109711, 0.00009464658796787262, 0.08253967761993408, -0.002975285053253174, 0.003977000713348389, 9.905092239379883, -0.3583877682685852, 0.4776032865047455, -10.930580139160156, 0.8644036650657654, 1.3015360832214355, -0.839111328125, -0.443115234375, -0.016357421875, 0, 
264, 342757255, -0.01800275221467018, 0.6933072209358215, -0.01695905812084675, 0.7202175855636597, 0.9999996423721313, -0.0008314261212944984, 0.00009763054549694061, 0.00013923831284046173, 0.08268111944198608, -0.0028964877128601074, 0.0035458803176879883, 9.922041893005371, -0.3493160307407379, 0.4261971414089203, -11.433387756347656, 1.342570185661316, 1.9147411584854126, -0.837158203125, -0.441650390625, -0.018798828125, 0, 
265, 342765588, -0.01732397824525833, 0.6931854486465454, -0.017859691753983498, 0.7203297019004822, 0.9999995827674866, -0.0008562719449400902, 0.00015616603195667267, 0.00018028169870376587, 0.08241462707519531, -0.003030061721801758, 0.003981292247772217, 9.890007019042969, -0.3658548891544342, 0.47902923822402954, -11.775055885314941, 2.1475229263305664, 2.4791505336761475, -0.836181640625, -0.442626953125, -0.021728515625, 0, 
266, 342773921, -0.016815977171063423, 0.693044126033783, -0.01869945041835308, 0.7204564213752747, 0.9999995231628418, -0.0008955495432019234, 0.00020729750394821167, 0.00022102892398834229, 0.08192813396453857, -0.0036665797233581543, 0.004044950008392334, 9.831571578979492, -0.4426160752773285, 0.4870572090148926, -12.315185546875, 2.8506598472595215, 3.0394880771636963, -0.837646484375, -0.439208984375, -0.020751953125, 0, 
267, 342782254, -0.016156336292624474, 0.6928595304489136, -0.019711660221219063, 0.720622181892395, 0.9999995231628418, -0.000908450223505497, 0.0002393685281276703, 0.0002727098762989044, 0.08167892694473267, -0.004440963268280029, 0.004547178745269775, 9.801586151123047, -0.536095380783081, 0.5475379228591919, -12.49258804321289, 3.2916855812072754, 3.750180244445801, -0.837158203125, -0.441650390625, -0.022705078125, 0, 
268, 342790587, -0.01571667566895485, 0.6926801800727844, -0.020618043839931488, 0.7207789421081543, 0.9999995231628418, -0.0008939942345023155, 0.0002551097422838211, 0.0003167875111103058, 0.08139652013778687, -0.0055204033851623535, 0.004943251609802246, 9.76761531829834, -0.6660590171813965, 0.5950908660888672, -12.293795585632324, 3.5081515312194824, 4.356315612792969, -0.836669921875, -0.445068359375, -0.021240234375, 0, 
269, 342798920, -0.015103806741535664, 0.6924498081207275, -0.02171880565583706, 0.7209808826446533, 0.9999995231628418, -0.0008656429126858711, 0.0002922751009464264, 0.00037071481347084045, 0.08140307664871216, -0.0064048171043396, 0.005440354347229004, 9.768278121948242, -0.7728446125984192, 0.6550827622413635, -11.903921127319336, 4.019232273101807, 5.097898960113525, -0.83740234375, -0.435791015625, -0.024169921875, 0, 
270, 342807253, -0.014779835008084774, 0.6922052502632141, -0.022629041224718094, 0.7211944460868835, 0.9999995231628418, -0.0008132485672831535, 0.0003387331962585449, 0.00040354207158088684, 0.08192098140716553, -0.006683766841888428, 0.005807280540466309, 9.830341339111328, -0.8066899180412292, 0.6996196508407593, -11.183420181274414, 4.658102989196777, 5.5493245124816895, -0.838623046875, -0.438232421875, -0.025146484375, 0, 
271, 342815586, -0.014381229877471924, 0.6918995976448059, -0.023607520386576653, 0.7214645743370056, 0.9999995231628418, -0.0007639927789568901, 0.00039150379598140717, 0.0004335995763540268, 0.08190399408340454, -0.00690150260925293, 0.006243646144866943, 9.828219413757324, -0.8330426216125488, 0.7524774074554443, -10.50607681274414, 5.383779525756836, 5.962661266326904, -0.83740234375, -0.437744140625, -0.026123046875, 0, 
272, 342823919, -0.014153439551591873, 0.6915738582611084, -0.02449226751923561, 0.7217519283294678, 0.9999995231628418, -0.000724361278116703, 0.00044557079672813416, 0.00045616738498210907, 0.08204537630081177, -0.007234454154968262, 0.006254613399505615, 9.845111846923828, -0.8731651306152344, 0.7543098330497742, -9.961082458496094, 6.127284049987793, 6.273003578186035, -0.83935546875, -0.4375, -0.027587890625, 0, 
273, 342832252, -0.013821741566061974, 0.6912221312522888, -0.025443892925977707, 0.7220620512962341, 0.9999995827674866, -0.0006775138899683952, 0.00044599734246730804, 0.00046147964894771576, 0.0823093056678772, -0.007382631301879883, 0.006399095058441162, 9.876765251159668, -0.8909919261932373, 0.771696925163269, -9.316859245300293, 6.133150577545166, 6.34605598449707, -0.8408203125, -0.43603515625, -0.030029296875, 0, 
274, 342840585, -0.013650325126945972, 0.690887451171875, -0.026234230026602745, 0.7223573327064514, 0.9999996423721313, -0.0006162598729133606, 0.0004545385017991066, 0.00043204519897699356, 0.0827760100364685, -0.007470846176147461, 0.006856262683868408, 9.932754516601562, -0.9013481140136719, 0.8267554640769958, -8.474520683288574, 6.250603199005127, 5.941285610198975, -0.8388671875, -0.43310546875, -0.030517578125, 0, 
275, 342848918, -0.013386889360845089, 0.6905223727226257, -0.02703353390097618, 0.7226817011833191, 0.9999996423721313, -0.0005855010822415352, 0.00046221911907196045, 0.0003991164267063141, 0.08366459608078003, -0.00752568244934082, 0.006982028484344482, 10.039403915405273, -0.9076135158538818, 0.8419849872589111, -8.05154037475586, 6.3562235832214355, 5.488464832305908, -0.83837890625, -0.43505859375, -0.032470703125, 0, 
276, 342857251, -0.013192998245358467, 0.690183162689209, -0.027723893523216248, 0.7229830622673035, 0.9999997019767761, -0.0005586976185441017, 0.0004610065370798111, 0.00034678541123867035, 0.0842544436454773, -0.007604062557220459, 0.007566392421722412, 10.110190391540527, -0.9166052341461182, 0.9122228026390076, -7.682951927185059, 6.339548587799072, 4.768833160400391, -0.83935546875, -0.43359375, -0.035400390625, 0, 
277, 342865584, -0.012822417542338371, 0.6898217797279358, -0.028473101556301117, 0.7233055830001831, 0.9999997019767761, -0.0005393344908952713, 0.000452154316008091, 0.00028752442449331284, 0.08417052030563354, -0.007727444171905518, 0.007999002933502197, 10.100178718566895, -0.9306834936141968, 0.9639023542404175, -7.4166789054870605, 6.217817783355713, 3.9539034366607666, -0.8427734375, -0.4326171875, -0.036865234375, 0, 
278, 342873917, -0.012564793229103088, 0.6894989609718323, -0.029043808579444885, 0.723595142364502, 0.9999997615814209, -0.0005163224413990974, 0.00044117867946624756, 0.00021800212562084198, 0.08411604166030884, -0.00797492265701294, 0.008355975151062012, 10.09367847442627, -0.959736704826355, 1.0066992044448853, -7.1002278327941895, 6.066885948181152, 2.9978647232055664, -0.8427734375, -0.4326171875, -0.035400390625, 0, 
279, 342882250, -0.012101841159164906, 0.6891491413116455, -0.029712988063693047, 0.7239090800285339, 0.9999997615814209, -0.0004996461793780327, 0.000432746484875679, 0.0001638811081647873, 0.08335518836975098, -0.008487999439239502, 0.008372664451599121, 10.002403259277344, -1.0208027362823486, 1.008686900138855, -6.870903968811035, 5.950930118560791, 2.253617525100708, -0.84130859375, -0.43310546875, -0.037841796875, 0, 
280, 342890583, -0.011791330762207508, 0.6888566017150879, -0.030160196125507355, 0.7241741418838501, 0.9999998211860657, -0.0004639504477381706, 0.00040220655500888824, 0.00009421072900295258, 0.08291018009185791, -0.00872194766998291, 0.007775366306304932, 9.949141502380371, -1.0480517148971558, 0.936610996723175, -6.380031585693359, 5.53095817565918, 1.2955422401428223, -0.8447265625, -0.43212890625, -0.039794921875, 0, 
281, 342898916, -0.011384814977645874, 0.6885430812835693, -0.030572740361094475, 0.7244613766670227, 0.9999998211860657, -0.0004129605367779732, 0.0003863181918859482, 0.00001677684485912323, 0.08282852172851562, -0.008607566356658936, 0.008046865463256836, 9.939417839050293, -1.0335291624069214, 0.9691582918167114, -5.6788434982299805, 5.312469959259033, 0.23070746660232544, -0.8408203125, -0.42822265625, -0.043212890625, 0, 
282, 342907249, -0.011057360097765923, 0.688285231590271, -0.03083628974854946, 0.7247004508972168, 0.9999998807907104, -0.00034301821142435074, 0.00035737454891204834, -0.000045268796384334564, 0.08314675092697144, -0.0088614821434021, 0.00868844985961914, 9.97769546508789, -1.0633306503295898, 1.0457402467727661, -4.71702766418457, 4.914449691772461, -0.6225155591964722, -0.8447265625, -0.43408203125, -0.041259765625, 0, 
