PacketCounter,SampleTimeFine,Quat_W,Quat_X,Quat_Y,Quat_Z,dq_W,dq_X,dq_Y,dq_Z,dv[1],dv[2],dv[3],Acc_X,Acc_Y,Acc_Z,Gyr_X,Gyr_Y,Gyr_Z,Mag_X,Mag_Y,Mag_Z,Status,
0, 2836295687, 0.24628250300884247, 0.6879721879959106, -0.34093591570854187, 0.5914396047592163, 0, 0, 0, 0, 0, 0, 0, 0, 0, 0, 0, 0, 0, -0.96728515625, -0.397705078125, -0.3212890625, 0, 
1, 2836304020, 0.24534624814987183, 0.6874715089797974, -0.3404490053653717, 0.5926901698112488, 0.9999985098838806, 0.0012352047488093376, 0.0009573092684149742, 0.0006974348798394203, 0.08097165822982788, -0.003203451633453369, -0.015517115592956543, 9.71849250793457, -0.39347872138023376, -1.8523743152618408, 16.985971450805664, 13.16447925567627, 9.590806007385254, -0.96826171875, -0.395263671875, -0.32421875, 0, 
2, 2836312353, 0.24446071684360504, 0.6869403123855591, -0.3398333191871643, 0.5940237045288086, 0.9999983906745911, 0.0012974487617611885, 0.0010811956599354744, 0.0006096391007304192, 0.08067947626113892, -0.0014358758926391602, -0.01613473892211914, 9.683904647827148, -0.18070882558822632, -1.9255684614181519, 17.84192657470703, 14.868109703063965, 8.383479118347168, -0.96728515625, -0.394287109375, -0.322265625, 0, 
3, 2836320686, 0.2451253980398178, 0.6873838305473328, -0.338918000459671, 0.5937606692314148, 0.9999982714653015, 0.0013238107785582542, 0.0011764289811253548, 0.0005354573950171471, 0.08016961812973022, -0.0003153681755065918, -0.015516817569732666, 9.622905731201172, -0.04546673223376274, -1.8507065773010254, 18.204444885253906, 16.177719116210938, 7.363367557525635, -0.96728515625, -0.394775390625, -0.3212890625, 0, 
4, 2836329019, 0.24428416788578033, 0.6868601441383362, -0.3381331264972687, 0.5951594114303589, 0.9999982118606567, 0.0013899607583880424, 0.0011797016486525536, 0.0004802616313099861, 0.0793144702911377, -0.00012087821960449219, -0.01590585708618164, 9.520353317260742, -0.021709557622671127, -1.8975512981414795, 19.114110946655273, 16.22272300720215, 6.604340076446533, -0.96875, -0.393310546875, -0.32470703125, 0, 
5, 2836337352, 0.24708329141139984, 0.6887879967689514, -0.33500465750694275, 0.5935426950454712, 0.9999982118606567, 0.0014011124148964882, 0.0011732140555977821, 0.00043379422277212143, 0.07899212837219238, 0.00003254413604736328, -0.01601731777191162, 9.481678009033203, -0.0028734044171869755, -1.911069393157959, 19.267457962036133, 16.13350486755371, 5.965340614318848, -0.96826171875, -0.396240234375, -0.3232421875, 0, 
6, 2836345685, 0.24618390202522278, 0.6883797645568848, -0.33411794900894165, 0.5948881506919861, 0.9999982118606567, 0.00149565190076828, 0.0010868385434150696, 0.0003922171890735626, 0.07857531309127808, -0.001208961009979248, -0.016855299472808838, 9.431551933288574, -0.15180782973766327, -2.012234687805176, 20.567527770996094, 14.945711135864258, 5.3935933113098145, -0.9677734375, -0.395751953125, -0.32373046875, 0, 
7, 2836354018, 0.24957872927188873, 0.6905457973480225, -0.33121103048324585, 0.5925846099853516, 0.999998152256012, 0.0015372540801763535, 0.001093495637178421, 0.00038860365748405457, 0.07928764820098877, -0.0026640892028808594, -0.01700538396835327, 9.516990661621094, -0.3265063762664795, -2.029869556427002, 21.13962173461914, 15.037259101867676, 5.343902111053467, -0.968017578125, -0.394287109375, -0.326171875, 0, 
8, 2836362351, 0.24859321117401123, 0.690204918384552, -0.3301977813243866, 0.5939598679542542, 0.9999979734420776, 0.001651429571211338, 0.001078135333955288, 0.00034048501402139664, 0.0793347954750061, -0.00449138879776001, -0.016978681087493896, 9.522558212280273, -0.5455690026283264, -2.026397705078125, 22.709707260131836, 14.826025009155273, 4.68219518661499, -0.96630859375, -0.398193359375, -0.32421875, 0, 
9, 2836370684, 0.2503567337989807, 0.6919551491737366, -0.32885873317718506, 0.5919221043586731, 0.9999977946281433, 0.0018559973686933517, 0.0009599626064300537, 0.00025611184537410736, 0.07994198799133301, -0.005750060081481934, -0.01718991994857788, 9.595224380493164, -0.6963264346122742, -2.0523576736450195, 25.522838592529297, 13.200971603393555, 3.5219342708587646, -0.96923828125, -0.396728515625, -0.32666015625, 0, 
10, 2836379017, 0.24911770224571228, 0.6918268799781799, -0.32751235365867615, 0.5933395028114319, 0.9999973177909851, 0.002088388428092003, 0.0009863413870334625, 0.00019879452884197235, 0.07877963781356812, -0.006248652935028076, -0.018420398235321045, 9.455957412719727, -0.7563455700874329, -2.1996593475341797, 28.718578338623047, 13.563724517822266, 2.7337329387664795, -0.96728515625, -0.397705078125, -0.32568359375, 0, 
11, 2836387350, 0.24877126514911652, 0.6929431557655334, -0.3272816240787506, 0.5923085808753967, 0.9999969005584717, 0.002332087606191635, 0.0008435361087322235, 0.00012221746146678925, 0.07693666219711304, -0.006253302097320557, -0.019955873489379883, 9.234694480895996, -0.7571365833282471, -2.3852505683898926, 32.06981658935547, 11.599928855895996, 1.6806795597076416, -0.96435546875, -0.399169921875, -0.32177734375, 0, 
12, 2836395683, 0.24716173112392426, 0.6932113170623779, -0.32556164264678955, 0.5936151742935181, 0.9999963641166687, 0.002628503367304802, 0.0006476808339357376, -0.0000012498348951339722, 0.0741884708404541, -0.006536006927490234, -0.020905256271362305, 8.904597282409668, -0.790930986404419, -2.5008938312530518, 36.14601135253906, 8.90661907196045, -0.017187174409627914, -0.9697265625, -0.397216796875, -0.32177734375, 0, 
13, 2836404016, 0.24538911879062653, 0.6945067048072815, -0.325766384601593, 0.5927234292030334, 0.9999958872795105, 0.002790141850709915, 0.0006481427699327469, -0.0001061735674738884, 0.07357275485992432, -0.0059285759925842285, -0.024004817008972168, 8.831027030944824, -0.7185581922531128, -2.87296986579895, 38.368797302246094, 8.912971496582031, -1.4600518941879272, -0.966796875, -0.397705078125, -0.322265625, 0, 
14, 2836412349, 0.243503600358963, 0.6951618790626526, -0.3236958980560303, 0.5938662886619568, 0.999995231628418, 0.0030699409544467926, 0.0002991221845149994, -0.000253346748650074, 0.07007551193237305, -0.005409419536590576, -0.023511409759521484, 8.410404205322266, -0.6556749939918518, -2.816972494125366, 42.21647262573242, 4.113396644592285, -3.483912944793701, -0.96826171875, -0.402587890625, -0.3212890625, 0, 
15, 2836420682, 0.24080173671245575, 0.6972137689590454, -0.32407212257385254, 0.5923553705215454, 0.9999949932098389, 0.0031445324420928955, 0.00020535290241241455, -0.00033241789788007736, 0.07118445634841919, -0.002599179744720459, -0.02396947145462036, 8.543172836303711, -0.31811824440956116, -2.8737096786499023, 43.24222946166992, 2.823922872543335, -4.571264743804932, -0.96875, -0.400634765625, -0.3173828125, 0, 
16, 2836429015, 0.23893499374389648, 0.6979050636291504, -0.3219001293182373, 0.5934804081916809, 0.9999950528144836, 0.0031192805618047714, 0.0002930089831352234, -0.00036168936640024185, 0.07257574796676636, -0.003235161304473877, -0.022866904735565186, 8.710383415222168, -0.3936444818973541, -2.7403664588928223, 42.89496994018555, 4.029330253601074, -4.973793029785156, -0.96435546875, -0.402099609375, -0.31689453125, 0, 
17, 2836437348, 0.23631110787391663, 0.7003083825111389, -0.3221908509731293, 0.5915389060974121, 0.9999950528144836, 0.0031177401542663574, 0.0001306086778640747, -0.00044553447514772415, 0.06779253482818604, -0.000944674015045166, -0.02139604091644287, 8.135814666748047, -0.11773932725191116, -2.5662083625793457, 42.87378692626953, 1.7960731983184814, -6.126793384552002, -0.9638671875, -0.40576171875, -0.308349609375, 0, 
18, 2836445681, 0.2344854176044464, 0.7011786103248596, -0.3200243413448334, 0.5924099683761597, 0.999995231628418, 0.0030465126037597656, 0.00001909211277961731, -0.0005118167027831078, 0.07147902250289917, 0.00013935565948486328, -0.01965796947479248, 8.577862739562988, 0.013928858563303947, -2.3589348793029785, 41.89429473876953, 0.26254627108573914, -7.0382771492004395, -0.964111328125, -0.407958984375, -0.308349609375, 0, 
19, 2836454014, 0.2322581261396408, 0.7037713527679443, -0.31999915838241577, 0.5902225375175476, 0.9999954700469971, 0.00294533371925354, -0.00021465029567480087, -0.0005963677540421486, 0.07061779499053955, 0.002802252769470215, -0.016446590423583984, 8.473847389221191, 0.3355204463005066, -1.9764821529388428, 40.50292205810547, -2.9517760276794434, -8.200984954833984, -0.966064453125, -0.406494140625, -0.307861328125, 0, 
20, 2836462347, 0.23053988814353943, 0.7048403024673462, -0.3179982900619507, 0.5907018780708313, 0.9999958276748657, 0.0027919951826334, -0.0003785984590649605, -0.0006247358396649361, 0.07412374019622803, 0.005743265151977539, -0.01179969310760498, 8.89423942565918, 0.6908153295516968, -1.42130446434021, 38.394283294677734, -5.206318378448486, -8.591090202331543, -0.958251953125, -0.40966796875, -0.302490234375, 0, 
21, 2836470680, 0.22916534543037415, 0.7072219848632812, -0.3176725506782532, 0.588561475276947, 0.9999964237213135, 0.002562250941991806, -0.0004930393770337105, -0.0006141429767012596, 0.07653176784515381, 0.009397029876708984, -0.007323920726776123, 9.183052062988281, 1.1310689449310303, -0.8863227367401123, 35.23493576049805, -6.78005838394165, -8.445420265197754, -0.963134765625, -0.41259765625, -0.297607421875, 0, 
22, 2836479013, 0.22767436504364014, 0.7082964181900024, -0.3160379230976105, 0.5887280702590942, 0.9999969601631165, 0.002315821126103401, -0.0006134258583188057, -0.0005816323682665825, 0.07619816064834595, 0.013841688632965088, -0.0035834908485412598, 9.142910957336426, 1.6653858423233032, -0.4394983649253845, 31.84613609313965, -8.43555736541748, -7.998348712921143, -0.962646484375, -0.41455078125, -0.294189453125, 0, 
23, 2836487346, 0.22752879559993744, 0.7101801037788391, -0.31522390246391296, 0.5869487524032593, 0.9999974966049194, 0.002003658562898636, -0.0008067348971962929, -0.0005378955975174904, 0.07637941837310791, 0.015349745750427246, -0.0031943917274475098, 9.164594650268555, 1.84619140625, -0.3944129943847656, 27.55340576171875, -11.093852996826172, -7.396896839141846, -0.960693359375, -0.416015625, -0.292724609375, 0, 
24, 2836495679, 0.2262740433216095, 0.7113459706306458, -0.31408199667930603, 0.58663409948349, 0.9999978542327881, 0.0017277207225561142, -0.0010430766269564629, -0.0005135079845786095, 0.07554376125335693, 0.0147019624710083, -0.0038003921508789062, 9.064223289489746, 1.768179178237915, -0.4686128497123718, 23.758834838867188, -14.343917846679688, -7.061530113220215, -0.96337890625, -0.4150390625, -0.286376953125, 0, 
25, 2836504012, 0.22733984887599945, 0.7129555344581604, -0.31272462010383606, 0.5849910974502563, 0.9999976754188538, 0.0015737414360046387, -0.00135731790214777, -0.0005342019721865654, 0.07601344585418701, 0.011595308780670166, -0.005438745021820068, 9.120346069335938, 1.3953182697296143, -0.6672012805938721, 21.641380310058594, -18.66522216796875, -7.346104145050049, -0.96142578125, -0.419921875, -0.283935546875, 0, 
26, 2836512345, 0.22606956958770752, 0.7143887281417847, -0.3117668330669403, 0.5842456817626953, 0.9999974370002747, 0.0015589166432619095, -0.0015489282086491585, -0.0005574403330683708, 0.07725352048873901, 0.011433243751525879, -0.004412233829498291, 9.269204139709473, 1.3763660192489624, -0.5459439754486084, 21.437517166137695, -21.30016326904297, -7.66566801071167, -0.96142578125, -0.42236328125, -0.281005859375, 0, 
27, 2836520678, 0.22756855189800262, 0.7158417105674744, -0.3100290894508362, 0.5828081369400024, 0.9999973177909851, 0.001549888402223587, -0.0016270773485302925, -0.0005307262763381004, 0.07997852563858032, 0.011662423610687256, -0.005678832530975342, 9.595941543579102, 1.4035769701004028, -0.6992852091789246, 21.313365936279297, -22.374834060668945, -7.298308372497559, -0.96142578125, -0.42333984375, -0.280029296875, 0, 
28, 2836529011, 0.22619667649269104, 0.7172607779502869, -0.30913010239601135, 0.5820745825767517, 0.9999973773956299, 0.0016019009053707123, -0.001572481356561184, -0.00045081134885549545, 0.08289194107055664, 0.009096205234527588, -0.0037450194358825684, 9.946222305297852, 1.0953456163406372, -0.4668230414390564, 22.028621673583984, -21.62405776977539, -6.199355125427246, -0.9609375, -0.42578125, -0.271728515625, 0, 
29, 2836537344, 0.22777709364891052, 0.7182652950286865, -0.3071659505367279, 0.5812587141990662, 0.9999976754188538, 0.0016611013561487198, -0.0013130344450473785, -0.0003347247838973999, 0.08576029539108276, 0.008811414241790771, -0.0042729973793029785, 10.29061222076416, 1.059992790222168, -0.5280317068099976, 22.842714309692383, -18.05625343322754, -4.6029839515686035, -0.959716796875, -0.42724609375, -0.266845703125, 0, 
30, 2836545677, 0.22639663517475128, 0.7193260192871094, -0.3062596917152405, 0.5809645056724548, 0.9999980330467224, 0.0016700178384780884, -0.0010451991111040115, -0.00024110451340675354, 0.08591914176940918, 0.009030520915985107, -0.003994166851043701, 10.309943199157715, 1.0853806734085083, -0.49188849329948425, 22.965328216552734, -14.373104095458984, -3.3155598640441895, -0.961669921875, -0.4296875, -0.265380859375, 0, 
31, 2836554010, 0.22803686559200287, 0.7197495698928833, -0.30420437455177307, 0.5808783173561096, 0.9999982118606567, 0.0016786977648735046, -0.0008153868839144707, -0.0001836763694882393, 0.08731204271316528, 0.008679449558258057, -0.002555251121520996, 10.47741985321045, 1.0429795980453491, -0.3169352114200592, 23.084688186645508, -11.21282958984375, -2.52583384513855, -0.961181640625, -0.4296875, -0.260498046875, 0, 
32, 2836562343, 0.2267223745584488, 0.7205343842506409, -0.3032260537147522, 0.5809314846992493, 0.9999983310699463, 0.001710113137960434, -0.0005940878763794899, -0.0001667207106947899, 0.08714878559112549, 0.008944571018218994, -0.0004665851593017578, 10.458057403564453, 1.0750362873077393, -0.06404893845319748, 23.516695022583008, -8.169625282287598, -2.2926669120788574, -0.961669921875, -0.4287109375, -0.259033203125, 0, 
33, 2836570676, 0.22843433916568756, 0.7205175161361694, -0.3010934293270111, 0.5813905596733093, 0.9999985098838806, 0.0016690772026777267, -0.0004297299310564995, -0.0001436220481991768, 0.08549284934997559, 0.009665608406066895, -0.0005388855934143066, 10.259357452392578, 1.1612766981124878, -0.07099132239818573, 22.952388763427734, -5.909450054168701, -1.975024938583374, -0.963134765625, -0.4296875, -0.256591796875, 0, 
34, 2836579009, 0.22719256579875946, 0.7211290001869202, -0.30012044310569763, 0.5816221237182617, 0.9999985694885254, 0.0016704928129911423, -0.0003400975838303566, -0.00010977964848279953, 0.08543121814727783, 0.010269880294799805, -0.0017597079277038574, 10.251949310302734, 1.2332051992416382, -0.21672378480434418, 22.97185516357422, -4.6768670082092285, -1.5096397399902344, -0.961181640625, -0.43017578125, -0.255126953125, 0, 
35, 2836587342, 0.22875656187534332, 0.7209060192108154, -0.29792872071266174, 0.5824117660522461, 0.9999984502792358, 0.0017136912792921066, -0.0003749346360564232, -0.00005433615297079086, 0.08281821012496948, 0.012888014316558838, 0.001224815845489502, 9.938553810119629, 1.5474090576171875, 0.14062854647636414, 23.565898895263672, -5.155930042266846, -0.7472059726715088, -0.95947265625, -0.434326171875, -0.251220703125, 0, 
36, 2836595675, 0.22742822766304016, 0.721546471118927, -0.2969917953014374, 0.5826174020767212, 0.9999984502792358, 0.0017117206007242203, -0.00040626805275678635, -0.00004486832767724991, 0.08258235454559326, 0.012344181537628174, -0.0002346634864807129, 9.910199165344238, 1.4817535877227783, -0.03472793847322464, 23.538799285888672, -5.586812496185303, -0.6170087456703186, -0.95947265625, -0.432861328125, -0.246826171875, 0, 
37, 2836604008, 0.22902525961399078, 0.7212429046630859, -0.29487335681915283, 0.5834429860115051, 0.9999985098838806, 0.0016486477106809616, -0.0004625162109732628, -0.000047919340431690216, 0.08129489421844482, 0.012153148651123047, 0.0014554858207702637, 9.755786895751953, 1.4591842889785767, 0.16778035461902618, 22.671449661254883, -6.360311508178711, -0.6589648723602295, -0.962890625, -0.43017578125, -0.248779296875, 0, 
38, 2836612341, 0.22776181995868683, 0.7219154834747314, -0.29405477643013, 0.5835188031196594, 0.9999986290931702, 0.001566179096698761, -0.0005232123658061028, -0.00003319699317216873, 0.0810098648071289, 0.01137155294418335, 0.0015088319778442383, 9.721620559692383, 1.3652461767196655, 0.1738058179616928, 21.537382125854492, -7.194977760314941, -0.45650994777679443, -0.9609375, -0.433349609375, -0.24462890625, 0, 
39, 2836620674, 0.22933416068553925, 0.7215766310691833, -0.29195427894592285, 0.5843766331672668, 0.9999987483024597, 0.0014997562393546104, -0.0005175117403268814, -0.00002641230821609497, 0.08066219091415405, 0.011006295680999756, 0.001277148723602295, 9.679892539978027, 1.3212876319885254, 0.14631333947181702, 20.62396240234375, -7.1165852546691895, -0.3632100224494934, -0.96044921875, -0.435302734375, -0.24169921875, 0, 
40, 2836629007, 0.22820115089416504, 0.7221695780754089, -0.2912268042564392, 0.5844507217407227, 0.999998927116394, 0.0014011990278959274, -0.0004575653001666069, -0.00001750979572534561, 0.08051103353500366, 0.010912120342254639, 0.0008214116096496582, 9.661731719970703, 1.309812068939209, 0.09231016039848328, 19.26865005493164, -6.292229175567627, -0.24078671634197235, -0.96240234375, -0.431884765625, -0.23828125, 0, 
41, 2836637340, 0.22988556325435638, 0.7216501832008362, -0.2892487347126007, 0.5854134559631348, 0.9999989867210388, 0.0013734903186559677, -0.0003838473930954933, -0.0000348920002579689, 0.08021777868270874, 0.009164154529571533, 0.0006958842277526855, 9.62651252746582, 1.1001887321472168, 0.0783253163099289, 18.887611389160156, -5.278493404388428, -0.47981882095336914, -0.96435546875, -0.4326171875, -0.23876953125, 0, 
42, 2836645673, 0.2288495898246765, 0.7221462726593018, -0.288488507270813, 0.5855827331542969, 0.9999990463256836, 0.0013567153364419937, -0.00029408838599920273, -0.000045209191739559174, 0.07997065782546997, 0.009490728378295898, 0.0001227259635925293, 9.596817016601562, 1.139386534690857, 0.010341983288526535, 18.656930923461914, -4.044168949127197, -0.6216961741447449, -0.958984375, -0.433837890625, -0.2353515625, 0, 
43, 2836654006, 0.23050010204315186, 0.7215388417243958, -0.28658443689346313, 0.5866180658340454, 0.9999990463256836, 0.0013529658317565918, -0.000303695909678936, -0.00004547927528619766, 0.08047610521316528, 0.008981287479400635, -0.00028073787689208984, 9.657459259033203, 1.0781916379928589, -0.03810938075184822, 18.605365753173828, -4.176286697387695, -0.6254101395606995, -0.9638671875, -0.434814453125, -0.23291015625, 0, 
44, 2836662339, 0.22944216430187225, 0.7220379710197449, -0.2858083248138428, 0.5867972373962402, 0.9999989867210388, 0.0013862289488315582, -0.00028904620558023453, -0.00003924313932657242, 0.08151578903198242, 0.00836271047592163, -0.0007895827293395996, 9.782217979431152, 1.003814458847046, -0.09895158559083939, 19.062786102294922, -3.9748308658599854, -0.5396536588668823, -0.958740234375, -0.437255859375, -0.2294921875, 0, 
45, 2836670672, 0.2308192402124405, 0.7214794158935547, -0.2838823199272156, 0.5878783464431763, 0.999998927116394, 0.0014452338218688965, -0.00032871123403310776, -0.000007995404303073883, 0.08241957426071167, 0.007785141468048096, -0.0006824135780334473, 9.89070987701416, 0.9342129826545715, -0.08651223033666611, 19.87419319152832, -4.520285606384277, -0.10994914174079895, -0.962158203125, -0.435791015625, -0.2294921875, 0, 
46, 2836679005, 0.22965607047080994, 0.7219894528388977, -0.28308337926864624, 0.5880929827690125, 0.9999988675117493, 0.0014889007434248924, -0.00029248371720314026, 0.000014201737940311432, 0.0836327075958252, 0.008202791213989258, -0.0017672181129455566, 10.036276817321777, 0.9839150905609131, -0.21646060049533844, 20.47468376159668, -4.022102355957031, 0.1952958106994629, -0.959228515625, -0.437744140625, -0.2265625, 0, 
47, 2836687338, 0.23084872961044312, 0.7214074730873108, -0.2812120318412781, 0.589236855506897, 0.9999987483024597, 0.0015685353428125381, -0.000273984856903553, 0.00001702830195426941, 0.08390992879867554, 0.007889807224273682, -0.0015689730644226074, 10.069557189941406, 0.9463462233543396, -0.19252395629882812, 21.569782257080078, -3.767714738845825, 0.23416545987129211, -0.962158203125, -0.436279296875, -0.22705078125, 0, 
48, 2836695671, 0.22963161766529083, 0.721884548664093, -0.2802598774433136, 0.5895816683769226, 0.9999986290931702, 0.0016477424651384354, -0.00015694741159677505, -0.000021784566342830658, 0.08425861597061157, 0.007953286170959473, -0.0018560290336608887, 10.111381530761719, 0.9542840719223022, -0.22589384019374847, 22.65900230407715, -2.1582694053649902, -0.2995714545249939, -0.957763671875, -0.436767578125, -0.22265625, 0, 
49, 2836704004, 0.23078885674476624, 0.7211888432502747, -0.2783578336238861, 0.5908809304237366, 0.9999985098838806, 0.0017156600952148438, -0.000022017396986484528, -0.00005910079926252365, 0.08395284414291382, 0.007977783679962158, -0.0018348097801208496, 10.07468318939209, 0.9575892090797424, -0.22205233573913574, 23.592971801757812, -0.3027731776237488, -0.812727153301239, -0.966064453125, -0.435302734375, -0.2197265625, 0, 
50, 2836712337, 0.22959323227405548, 0.7215802073478699, -0.27722060680389404, 0.5914033651351929, 0.9999984502792358, 0.001771535724401474, 0.00007257238030433655, -0.0000991402193903923, 0.08346402645111084, 0.00848996639251709, -0.0011379122734069824, 10.015992164611816, 1.0195884704589844, -0.13763532042503357, 24.361352920532227, 0.9979824423789978, -1.3633311986923218, -0.963134765625, -0.438232421875, -0.2197265625, 0, 
51, 2836720670, 0.2305053025484085, 0.7209118604660034, -0.2750712037086487, 0.5928654074668884, 0.9999983310699463, 0.0018242113292217255, 0.00014640949666500092, -0.00012032408267259598, 0.08325719833374023, 0.009399175643920898, -0.001252591609954834, 9.99114990234375, 1.1288747787475586, -0.15091311931610107, 25.085721969604492, 2.0133566856384277, -1.654642105102539, -0.962158203125, -0.439208984375, -0.21875, 0, 
52, 2836729003, 0.22930234670639038, 0.7212749719619751, -0.2738349139690399, 0.5934622883796692, 0.9999982714653015, 0.0018498264253139496, 0.0001660417765378952, -0.00013718847185373306, 0.08313095569610596, 0.009832501411437988, -0.0011119842529296875, 9.975974082946777, 1.181065320968628, -0.13396869599819183, 25.437971115112305, 2.2833306789398193, -1.8865532875061035, -0.964111328125, -0.440673828125, -0.21630859375, 0, 
53, 2836737336, 0.23021170496940613, 0.7205877304077148, -0.2717639207839966, 0.5948953032493591, 0.9999982118606567, 0.001860080286860466, 0.0001906566321849823, -0.00016557704657316208, 0.08341813087463379, 0.010192930698394775, -0.0006774067878723145, 10.01038932800293, 1.2247036695480347, -0.08165894448757172, 25.578977584838867, 2.621823310852051, -2.276940107345581, -0.960693359375, -0.437744140625, -0.21435546875, 0, 
54, 2836745669, 0.2290213257074356, 0.7209453582763672, -0.27046841382980347, 0.5955115556716919, 0.9999982118606567, 0.0018802676349878311, 0.00020237267017364502, -0.00017713848501443863, 0.08316904306411743, 0.010237693786621094, -0.0010297298431396484, 9.980490684509277, 1.2301071882247925, -0.12386365979909897, 25.856586456298828, 2.7829368114471436, -2.4359281063079834, -0.958251953125, -0.440673828125, -0.212890625, 0, 
55, 2836754002, 0.22987784445285797, 0.7202650904655457, -0.2683905363082886, 0.5969431400299072, 0.999998152256012, 0.0018921755254268646, 0.00024240277707576752, -0.0002017272636294365, 0.08317440748214722, 0.009624660015106201, -0.0002917051315307617, 9.981103897094727, 1.1569453477859497, -0.034774087369441986, 26.02033805847168, 3.3334126472473145, -2.774061441421509, -0.960205078125, -0.442138671875, -0.2119140625, 0, 
56, 2836762335, 0.22868706285953522, 0.7206192016601562, -0.2670133411884308, 0.597590446472168, 0.9999980926513672, 0.0019369982182979584, 0.00024748779833316803, -0.00022344756871461868, 0.08224493265151978, 0.008988261222839355, -0.00045436620712280273, 9.86955738067627, 1.0807404518127441, -0.05417325347661972, 26.636722564697266, 3.4033401012420654, -3.0727498531341553, -0.956787109375, -0.443603515625, -0.21142578125, 0, 
57, 2836770668, 0.22894729673862457, 0.7202092409133911, -0.2643028199672699, 0.5991877913475037, 0.9999979138374329, 0.0020219460129737854, 0.0002451799809932709, -0.0002506570890545845, 0.08153259754180908, 0.007859945297241211, -0.001020669937133789, 9.784095764160156, 0.9454314112663269, -0.12199593335390091, 27.80488395690918, 3.3716039657592773, -3.446922779083252, -0.958984375, -0.442626953125, -0.20849609375, 0, 
58, 2836779001, 0.2276315987110138, 0.7206442952156067, -0.2627374827861786, 0.599854052066803, 0.999997615814209, 0.002163426950573921, 0.00022480450570583344, -0.0002971375361084938, 0.0805177092552185, 0.006522417068481445, -0.001799464225769043, 9.662325859069824, 0.7851298451423645, -0.21546652913093567, 29.750471115112305, 3.091409921646118, -4.086101055145264, -0.95849609375, -0.443115234375, -0.2060546875, 0, 
59, 2836787334, 0.22763648629188538, 0.7203667163848877, -0.2598406672477722, 0.601445198059082, 0.9999971389770508, 0.002370290458202362, 0.0002083703875541687, -0.0003451230004429817, 0.08056861162185669, 0.005428791046142578, -0.0031296610832214355, 9.668473243713379, 0.6539283990859985, -0.37510570883750916, 32.59517288208008, 2.8654160499572754, -4.74597692489624, -0.958984375, -0.443115234375, -0.20703125, 0, 
60, 2836795667, 0.22602571547031403, 0.7209290862083435, -0.25793376564979553, 0.602199375629425, 0.9999964237213135, 0.0026335306465625763, 0.00021496787667274475, -0.0003745919093489647, 0.08061861991882324, 0.004671216011047363, -0.004063963890075684, 9.674515724182129, 0.5629087686538696, -0.4870937466621399, 36.21513366699219, 2.9561421871185303, -5.151220798492432, -0.95947265625, -0.445068359375, -0.20361328125, 0, 
61, 2836804000, 0.2255847454071045, 0.7207788228988647, -0.254738450050354, 0.6039021015167236, 0.9999957084655762, 0.002896128222346306, 0.0002543199807405472, -0.000383877195417881, 0.08096128702163696, 0.0038622617721557617, -0.0046672821044921875, 9.715704917907715, 0.4656018316745758, -0.5589679479598999, 39.82627487182617, 3.49729585647583, -5.278909206390381, -0.95654296875, -0.449951171875, -0.19873046875, 0, 
62, 2836812333, 0.2236243635416031, 0.7214037775993347, -0.2524780035018921, 0.6048334836959839, 0.9999948740005493, 0.0031587500125169754, 0.0002981722354888916, -0.00038931798189878464, 0.08163541555404663, 0.0035016536712646484, -0.005917251110076904, 9.7966890335083, 0.4217885434627533, -0.7085057497024536, 43.437744140625, 4.100333213806152, -5.353729248046875, -0.95654296875, -0.44775390625, -0.1962890625, 0, 
63, 2836820666, 0.22274638712406158, 0.7213373780250549, -0.2490004003047943, 0.6066756844520569, 0.9999940991401672, 0.0033883005380630493, 0.0003588087856769562, -0.0004008812829852104, 0.08263468742370605, 0.0030039548873901367, -0.006213009357452393, 9.916682243347168, 0.3619408905506134, -0.7432554364204407, 46.59442901611328, 4.9341816902160645, -5.512744426727295, -0.95703125, -0.447265625, -0.19482421875, 0, 
64, 2836828999, 0.22048655152320862, 0.7219794988632202, -0.2463861107826233, 0.6078037619590759, 0.9999932050704956, 0.003642464056611061, 0.0004369020462036133, -0.0004179077222943306, 0.08288127183914185, 0.002995789051055908, -0.0064958930015563965, 9.94633960723877, 0.3608286380767822, -0.7765070199966431, 50.089599609375, 6.008089065551758, -5.74688720703125, -0.95654296875, -0.4501953125, -0.19287109375, 0, 
65, 2836837332, 0.21927134692668915, 0.7219432592391968, -0.24268147349357605, 0.6097734570503235, 0.9999923706054688, 0.003847165033221245, 0.0005078427493572235, -0.0004386967048048973, 0.08389443159103394, 0.0038338303565979004, -0.005868434906005859, 10.067890167236328, 0.4617904722690582, -0.7008979320526123, 52.90456771850586, 6.983635902404785, -6.032769680023193, -0.955810546875, -0.44921875, -0.18701171875, 0, 
66, 2836845665, 0.21680466830730438, 0.7225629091262817, -0.2397501915693283, 0.6110798716545105, 0.9999915957450867, 0.004023674875497818, 0.0006017293781042099, -0.0004700394347310066, 0.08492434024810791, 0.004436910152435303, -0.004872679710388184, 10.191427230834961, 0.5348942279815674, -0.5807567834854126, 55.33187484741211, 8.274727821350098, -6.463783264160156, -0.954833984375, -0.4521484375, -0.18359375, 0, 
67, 2836853998, 0.215316042304039, 0.7225142121315002, -0.2357948273420334, 0.6131992340087891, 0.9999909400939941, 0.004173068329691887, 0.0007087886333465576, -0.0004881741479039192, 0.0844685435295105, 0.00532686710357666, -0.004526734352111816, 10.136702537536621, 0.6419366598129272, -0.5387178063392639, 57.38628005981445, 9.746962547302246, -6.713165283203125, -0.954345703125, -0.45556640625, -0.18212890625, 0, 
68, 2836862331, 0.2127280831336975, 0.7230793833732605, -0.23262552917003632, 0.6146450638771057, 0.9999904036521912, 0.004278471693396568, 0.0007617734372615814, -0.0005184626206755638, 0.0835757851600647, 0.0059493184089660645, -0.004819095134735107, 10.029563903808594, 0.7166800498962402, -0.5737306475639343, 58.83575439453125, 10.475589752197266, -7.12968111038208, -0.951416015625, -0.45166015625, -0.1767578125, 0, 
69, 2836870664, 0.2110854685306549, 0.7230308055877686, -0.22851262986660004, 0.6168074607849121, 0.999989926815033, 0.004383604973554611, 0.0008136201649904251, -0.0005562370643019676, 0.08240419626235962, 0.00663989782333374, -0.004599273204803467, 9.88890266418457, 0.7999056577682495, -0.547389030456543, 60.28150177001953, 11.18856430053711, -7.649139881134033, -0.951416015625, -0.45458984375, -0.174560546875, 0, 
70, 2836878997, 0.2084210067987442, 0.7235838174819946, -0.22514206171035767, 0.6183028221130371, 0.9999895095825195, 0.004466576501727104, 0.0008335523307323456, -0.0005975225940346718, 0.08125287294387817, 0.007231175899505615, -0.005137741565704346, 9.750727653503418, 0.8708556294441223, -0.6123046278953552, 61.42251205444336, 11.462666511535645, -8.216883659362793, -0.95263671875, -0.45654296875, -0.168701171875, 0, 
71, 2836887330, 0.2066798061132431, 0.7235633134841919, -0.22089903056621552, 0.6204379796981812, 0.9999892115592957, 0.004521235823631287, 0.0008546635508537292, -0.0006418759003281593, 0.08070826530456543, 0.0077683329582214355, -0.005070805549621582, 9.68529987335205, 0.9357078075408936, -0.6044647097587585, 62.17417526245117, 11.75298023223877, -8.826813697814941, -0.951171875, -0.45947265625, -0.168701171875, 0, 
72, 2836895663, 0.2039751410484314, 0.7241206169128418, -0.2173759937286377, 0.6219255328178406, 0.999988853931427, 0.004589414224028587, 0.0008513852953910828, -0.0006795255467295647, 0.08041083812713623, 0.007627665996551514, -0.005489170551300049, 9.649622917175293, 0.9188987612724304, -0.6547151803970337, 63.111732482910156, 11.707901000976562, -9.344555854797363, -0.95361328125, -0.4619140625, -0.162353515625, 0, 
73, 2836903996, 0.20214462280273438, 0.7241421937942505, -0.2129887193441391, 0.6240124106407166, 0.9999884366989136, 0.004666337743401527, 0.0008772723376750946, -0.0007394431158900261, 0.08036595582962036, 0.007323026657104492, -0.006202220916748047, 9.644301414489746, 0.8824642896652222, -0.739940881729126, 64.16956329345703, 12.063889503479004, -10.168519020080566, -0.95068359375, -0.462890625, -0.160400390625, 0, 
74, 2836912329, 0.1993526816368103, 0.7246943712234497, -0.20926064252853394, 0.6255290508270264, 0.9999878406524658, 0.0047855377197265625, 0.0009019449353218079, -0.0007608188316226006, 0.08035528659820557, 0.00688248872756958, -0.006681680679321289, 9.643112182617188, 0.8294380903244019, -0.7970953583717346, 65.80876922607422, 12.403180122375488, -10.462471008300781, -0.94970703125, -0.46435546875, -0.160888671875, 0, 
75, 2836920662, 0.1973188817501068, 0.7247507572174072, -0.20472216606140137, 0.6276069283485413, 0.9999872446060181, 0.0049086567014455795, 0.0009109172970056534, -0.0007597142830491066, 0.0803670883178711, 0.007129251956939697, -0.0066220760345458984, 9.64450740814209, 0.8589794635772705, -0.7900992035865784, 67.50186157226562, 12.526565551757812, -10.447283744812012, -0.947265625, -0.462158203125, -0.153076171875, 0, 
76, 2836928995, 0.1943453699350357, 0.7252833843231201, -0.20084302127361298, 0.6291709542274475, 0.9999867081642151, 0.005017859861254692, 0.0009445920586585999, -0.0007376139983534813, 0.08064436912536621, 0.0071912407875061035, -0.006638050079345703, 9.677824974060059, 0.866132378578186, -0.7917920351028442, 69.00359344482422, 12.989651679992676, -10.14337158203125, -0.947998046875, -0.467041015625, -0.149658203125, 0, 
77, 2836937328, 0.19207103550434113, 0.7253327369689941, -0.19620876014232635, 0.6312713623046875, 0.9999861121177673, 0.005136448889970779, 0.0009756945073604584, -0.0007020188495516777, 0.08048051595687866, 0.007695972919464111, -0.006605982780456543, 9.658170700073242, 0.9262706637382507, -0.7880734205245972, 70.63439178466797, 13.417362213134766, -9.65388298034668, -0.946533203125, -0.466064453125, -0.145751953125, 0, 
78, 2836945661, 0.1888982653617859, 0.7258325815200806, -0.19221261143684387, 0.6328814625740051, 0.9999855756759644, 0.005238883197307587, 0.0009851586073637009, -0.000675995834171772, 0.08047670125961304, 0.007830679416656494, -0.0071713924407958984, 9.657798767089844, 0.9417474269866943, -0.8560128808021545, 72.04305267333984, 13.54751205444336, -9.296028137207031, -0.947509765625, -0.465576171875, -0.142333984375, 0, 
79, 2836953994, 0.18640173971652985, 0.7258931994438171, -0.18748773634433746, 0.6349660754203796, 0.9999849796295166, 0.005346663296222687, 0.0009996816515922546, -0.0006586229428648949, 0.08026552200317383, 0.008031785488128662, -0.006593465805053711, 9.632402420043945, 0.9659736752510071, -0.7867767214775085, 73.52520751953125, 13.747228622436523, -9.057123184204102, -0.947021484375, -0.469482421875, -0.136474609375, 0, 
80, 2836962327, 0.1830599308013916, 0.726381778717041, -0.18338637053966522, 0.6365754008293152, 0.999984622001648, 0.005425877869129181, 0.00098312646150589, -0.0006380332633852959, 0.07983285188674927, 0.008047997951507568, -0.0061460137367248535, 9.58043098449707, 0.9679166674613953, -0.7333762645721436, 74.61454772949219, 13.519570350646973, -8.773983001708984, -0.944580078125, -0.467041015625, -0.131591796875, 0, 
81, 2836970660, 0.18039414286613464, 0.7264615893363953, -0.17861351370811462, 0.6385990381240845, 0.9999842643737793, 0.005485059693455696, 0.0009857714176177979, -0.0006234096363186836, 0.07942497730255127, 0.008796334266662598, -0.0053702592849731445, 9.531353950500488, 1.0580154657363892, -0.6408560276031494, 75.42839813232422, 13.55594253540039, -8.572884559631348, -0.94482421875, -0.470458984375, -0.127685546875, 0, 
82, 2836978993, 0.17695526778697968, 0.7269471287727356, -0.1744752675294876, 0.6401508450508118, 0.9999842047691345, 0.005508806556463242, 0.0009358972311019897, -0.0006077522411942482, 0.07966428995132446, 0.009190976619720459, -0.005057036876678467, 9.559991836547852, 1.1054332256317139, -0.604002058506012, 75.75495147705078, 12.87009334564209, -8.357571601867676, -0.94140625, -0.47119140625, -0.122314453125, 0, 
83, 2836987326, 0.17423324286937714, 0.7270678877830505, -0.1697351187467575, 0.6420320272445679, 0.9999843835830688, 0.005481254309415817, 0.0008951518684625626, -0.0006158268079161644, 0.07953470945358276, 0.010595858097076416, -0.0039786696434021, 9.544189453125, 1.274817943572998, -0.4758909046649933, 75.37606048583984, 12.309778213500977, -8.468608856201172, -0.94189453125, -0.47314453125, -0.120361328125, 0, 
84, 2836995659, 0.1708289384841919, 0.7275432348251343, -0.16561511158943176, 0.6434827446937561, 0.9999845623970032, 0.00545252300798893, 0.0008752383291721344, -0.000628066249191761, 0.07988846302032471, 0.010281980037689209, -0.004251062870025635, 9.586668968200684, 1.2371309995651245, -0.5084900856018066, 74.98095703125, 12.035933494567871, -8.636919975280762, -0.9423828125, -0.47314453125, -0.113525390625, 0, 
85, 2837003992, 0.1681365668773651, 0.7276255488395691, -0.16090022027492523, 0.6452924609184265, 0.9999846816062927, 0.005420258268713951, 0.0009136572480201721, -0.0006345780566334724, 0.0790528655052185, 0.010438859462738037, -0.003686845302581787, 9.48633098602295, 1.2563374042510986, -0.440568745136261, 74.53726196289062, 12.564254760742188, -8.726468086242676, -0.94384765625, -0.47509765625, -0.111572265625, 0, 
86, 2837012325, 0.1647712141275406, 0.7280265092849731, -0.15677955746650696, 0.6467210650444031, 0.9999847412109375, 0.005408322438597679, 0.0009168796241283417, -0.0006408123299479485, 0.07841098308563232, 0.010313212871551514, -0.004091918468475342, 9.40934944152832, 1.2410110235214233, -0.48912280797958374, 74.37311553955078, 12.60856819152832, -8.812199592590332, -0.940185546875, -0.4736328125, -0.10498046875, 0, 
87, 2837020658, 0.16206881403923035, 0.7280969619750977, -0.15210147202014923, 0.6484394669532776, 0.9999849200248718, 0.005383141338825226, 0.0008868426084518433, -0.000624719075858593, 0.07772499322891235, 0.010436773300170898, -0.004390239715576172, 9.327055931091309, 1.2554569244384766, -0.5253252983093262, 74.0268325805664, 12.195509910583496, -8.590890884399414, -0.941650390625, -0.47412109375, -0.1005859375, 0, 
88, 2837028991, 0.15871275961399078, 0.7284794449806213, -0.14803540706634521, 0.649779736995697, 0.9999851584434509, 0.005349326878786087, 0.0008604861795902252, -0.0006146179512143135, 0.07738226652145386, 0.011977791786193848, -0.0050855278968811035, 9.285884857177734, 1.4398366212844849, -0.6099905371665955, 73.56182861328125, 11.8330659866333, -8.451983451843262, -0.939208984375, -0.4755859375, -0.09765625, 0, 
89, 2837037324, 0.15602894127368927, 0.7285661101341248, -0.14343063533306122, 0.6513633131980896, 0.9999854564666748, 0.005300363525748253, 0.000808030366897583, -0.0006184345111250877, 0.0774579644203186, 0.011228740215301514, -0.0041092634201049805, 9.294890403747559, 1.350636601448059, -0.49276840686798096, 72.88850402832031, 11.111713409423828, -8.504467010498047, -0.937255859375, -0.4765625, -0.091796875, 0, 
90, 2837045657, 0.15274806320667267, 0.7289310693740845, -0.13942447304725647, 0.6526013016700745, 0.9999857544898987, 0.005237642675638199, 0.0008021239191293716, -0.0006298767402768135, 0.07746613025665283, 0.012629866600036621, -0.0056032538414001465, 9.295890808105469, 1.5179762840270996, -0.6729028224945068, 72.0259780883789, 11.030488967895508, -8.66181468963623, -0.936767578125, -0.473388671875, -0.08837890625, 0, 
91, 2837053990, 0.15012326836585999, 0.7290428876876831, -0.13490155339241028, 0.6540346145629883, 0.9999861121177673, 0.005183257162570953, 0.0007164664566516876, -0.0006301281973719597, 0.07779639959335327, 0.010518372058868408, -0.004224300384521484, 9.3355073928833, 1.2655106782913208, -0.5067957639694214, 71.278076171875, 9.852560043334961, -8.665271759033203, -0.93994140625, -0.47607421875, -0.083984375, 0, 
92, 2837062323, 0.14689666032791138, 0.7294300198554993, -0.13095761835575104, 0.655136227607727, 0.9999863505363464, 0.005142031237483025, 0.0006893128156661987, -0.0006402814760804176, 0.07845211029052734, 0.010772526264190674, -0.006274521350860596, 9.414320945739746, 1.2949110269546509, -0.7531341910362244, 70.71115112304688, 9.479154586791992, -8.80489444732666, -0.93798828125, -0.477783203125, -0.07763671875, 0, 
93, 2837070656, 0.1442914456129074, 0.7295829653739929, -0.12646402418613434, 0.6564264297485352, 0.9999864101409912, 0.005133721977472305, 0.0006206277757883072, -0.0006561772897839546, 0.0790015459060669, 0.00946342945098877, -0.00641399621963501, 9.480297088623047, 1.1379272937774658, -0.769660472869873, 70.59689331054688, 8.534625053405762, -9.023487091064453, -0.935546875, -0.475830078125, -0.0751953125, 0, 
94, 2837078989, 0.14105838537216187, 0.7299697399139404, -0.1225009560585022, 0.6574499011039734, 0.9999863505363464, 0.00514911487698555, 0.0006376169621944427, -0.0006583230569958687, 0.07987779378890991, 0.009107112884521484, -0.006841480731964111, 9.585522651672363, 1.0949815511703491, -0.8205295205116272, 70.80856323242188, 8.768253326416016, -9.052995681762695, -0.93603515625, -0.476318359375, -0.072265625, 0, 
95, 2837087322, 0.13841469585895538, 0.7300990223884583, -0.11799639463424683, 0.6586909294128418, 0.9999862909317017, 0.005155632272362709, 0.0006369985640048981, -0.0006581181660294533, 0.07979357242584229, 0.009248733520507812, -0.006113290786743164, 9.575346946716309, 1.112412452697754, -0.73325115442276, 70.89820098876953, 8.759749412536621, -9.050178527832031, -0.938720703125, -0.480224609375, -0.0595703125, 0, 
96, 2837095655, 0.13516192138195038, 0.7304373383522034, -0.11399456113576889, 0.6596953868865967, 0.9999861717224121, 0.00517977774143219, 0.0006617624312639236, -0.0006674593314528465, 0.07998061180114746, 0.008431613445281982, -0.005760490894317627, 9.597838401794434, 1.0146619081497192, -0.690180778503418, 71.23023223876953, 9.100292205810547, -9.178634643554688, -0.933349609375, -0.477294921875, -0.0576171875, 0, 
97, 2837103988, 0.13247066736221313, 0.7305052280426025, -0.1094312071800232, 0.6609377861022949, 0.999985933303833, 0.005216630175709724, 0.0007178317755460739, -0.0006815595552325249, 0.07942873239517212, 0.008279681205749512, -0.005876421928405762, 9.531656265258789, 0.9964220523834229, -0.7035447359085083, 71.73702239990234, 9.871336936950684, -9.372535705566406, -0.935302734375, -0.479248046875, -0.0517578125, 0, 
98, 2837112321, 0.12919792532920837, 0.7307588458061218, -0.10537613928318024, 0.6619634628295898, 0.9999858736991882, 0.005220400169491768, 0.0007411092519760132, -0.0006779087707400322, 0.07875090837478638, 0.00933605432510376, -0.006636917591094971, 9.450315475463867, 1.1226211786270142, -0.7953110933303833, 71.78886413574219, 10.191438674926758, -9.322330474853516, -0.933837890625, -0.480712890625, -0.0478515625, 0, 
99, 2837120654, 0.12647677958011627, 0.7307860851287842, -0.10084333270788193, 0.6631636023521423, 0.9999859929084778, 0.005204217508435249, 0.0007383283227682114, -0.0006625698879361153, 0.07818222045898438, 0.010474145412445068, -0.006549417972564697, 9.381988525390625, 1.2590748071670532, -0.78557950258255, 71.56632995605469, 10.153196334838867, -9.111396789550781, -0.936279296875, -0.478759765625, -0.0419921875, 0, 
100, 2837128987, 0.12323201447725296, 0.7310314774513245, -0.096847303211689, 0.6640989780426025, 0.9999862909317017, 0.005150390788912773, 0.0006787832826375961, -0.0006611673161387444, 0.07782948017120361, 0.01202160120010376, -0.007240653038024902, 9.339546203613281, 1.4443472623825073, -0.8700062036514282, 70.82611846923828, 9.334357261657715, -9.092108726501465, -0.9345703125, -0.481689453125, -0.04150390625, 0, 
101, 2837137320, 0.12058981508016586, 0.7310888767242432, -0.09242931008338928, 0.6651495099067688, 0.9999867677688599, 0.005055475980043411, 0.0006349775940179825, -0.0006684167310595512, 0.0785943865776062, 0.01205599308013916, -0.007736265659332275, 9.431325912475586, 1.4483853578567505, -0.9297168254852295, 69.5208740234375, 8.731956481933594, -9.191798210144043, -0.9287109375, -0.4755859375, -0.03662109375, 0, 
102, 2837145653, 0.11746831983327866, 0.7312856912612915, -0.0885477289557457, 0.6660192608833313, 0.9999871850013733, 0.004972007125616074, 0.0006635189056396484, -0.0006606215611100197, 0.07917135953903198, 0.012135148048400879, -0.007872700691223145, 9.50060749053955, 1.4578537940979004, -0.9457013010978699, 68.37303161621094, 9.124442100524902, -9.084600448608398, -0.93017578125, -0.47802734375, -0.030029296875, 0, 
103, 2837153986, 0.11491624265909195, 0.7312402129173279, -0.08428323268890381, 0.667067289352417, 0.9999876618385315, 0.004871873185038567, 0.0007247813045978546, -0.0006154300644993782, 0.07947224378585815, 0.013408124446868896, -0.006877779960632324, 9.536657333374023, 1.6108863353729248, -0.8262966275215149, 66.99602508544922, 9.966899871826172, -8.46314525604248, -0.93603515625, -0.4794921875, -0.024169921875, 0, 
104, 2837162319, 0.11188854277133942, 0.7312793135643005, -0.08055553585290909, 0.6679990887641907, 0.9999880194664001, 0.004787599667906761, 0.0008067488670349121, -0.0005875406786799431, 0.07946175336837769, 0.014383196830749512, -0.006688952445983887, 9.535422325134277, 1.7278120517730713, -0.803280234336853, 65.83712005615234, 11.094080924987793, -8.079619407653809, -0.9306640625, -0.47607421875, -0.020751953125, 0, 
105, 2837170652, 0.10943574458360672, 0.7311289310455322, -0.07644211500883102, 0.6690524816513062, 0.9999885559082031, 0.0046839043498039246, 0.0008195154368877411, -0.0005686739459633827, 0.07954549789428711, 0.01416867971420288, -0.005278527736663818, 9.545392036437988, 1.7027721405029297, -0.6335938572883606, 64.4111328125, 11.26963996887207, -7.8201704025268555, -0.93115234375, -0.4814453125, -0.019287109375, 0, 
106, 2837178985, 0.10653188079595566, 0.7310826778411865, -0.0728967934846878, 0.6699667572975159, 0.9999890923500061, 0.004564052447676659, 0.000842951238155365, -0.0005302233621478081, 0.07941865921020508, 0.013702571392059326, -0.0038774609565734863, 9.530139923095703, 1.6473037004470825, -0.46478986740112305, 62.762969970703125, 11.5919189453125, -7.291413307189941, -0.928955078125, -0.47705078125, -0.015380859375, 0, 
107, 2837187318, 0.10419252514839172, 0.7309125065803528, -0.06900769472122192, 0.6709312796592712, 0.9999897480010986, 0.004439622163772583, 0.0007749628275632858, -0.0004911227151751518, 0.07942306995391846, 0.012931346893310547, -0.004347562789916992, 9.530791282653809, 1.5541905164718628, -0.5212349891662598, 61.05183792114258, 10.656967163085938, -6.753715515136719, -0.929443359375, -0.474853515625, -0.008544921875, 0, 
108, 2837195651, 0.10139650851488113, 0.7308841347694397, -0.0657038614153862, 0.6717217564582825, 0.9999903440475464, 0.004316100850701332, 0.0007248669862747192, -0.00043859053403139114, 0.07838195562362671, 0.0136871337890625, -0.0041165947914123535, 9.405848503112793, 1.6445139646530151, -0.4942849278450012, 59.35321044921875, 9.96806812286377, -6.031313896179199, -0.928466796875, -0.479248046875, -0.008056640625, 0, 
109, 2837203984, 0.09917470812797546, 0.730766773223877, -0.06205691769719124, 0.6725276708602905, 0.9999909400939941, 0.0041837189346551895, 0.0006215441972017288, -0.0004193885251879692, 0.07804954051971436, 0.011854588985443115, -0.006135702133178711, 9.366179466247559, 1.4234546422958374, -0.7364450693130493, 57.532745361328125, 8.54721450805664, -5.767254829406738, -0.931396484375, -0.4765625, -0.002197265625, 0, 
110, 2837212317, 0.09652025252580643, 0.7308637499809265, -0.05893775448203087, 0.6730889678001404, 0.9999914765357971, 0.00408635288476944, 0.0004657544195652008, -0.00042786169797182083, 0.07795637845993042, 0.011455953121185303, -0.0063814520835876465, 9.354907989501953, 1.3756412267684937, -0.7670671939849854, 56.19379425048828, 6.404857158660889, -5.883772850036621, -0.930908203125, -0.477783203125, 0.000244140625, 0, 
111, 2837220650, 0.09440186619758606, 0.7308454513549805, -0.05536474660038948, 0.6737121343612671, 0.9999915957450867, 0.004054758697748184, 0.00043769925832748413, -0.0004676738753914833, 0.07931476831436157, 0.012317776679992676, -0.007167041301727295, 9.517838478088379, 1.479153037071228, -0.8619068264961243, 55.75932693481445, 6.019054889678955, -6.431253433227539, -0.927490234375, -0.476318359375, 0.006591796875, 0, 
112, 2837228983, 0.09184418618679047, 0.7309600710868835, -0.05224103480577469, 0.6741906404495239, 0.9999917149543762, 0.004015456885099411, 0.000401156023144722, -0.0005036769434809685, 0.07930988073348999, 0.01030665636062622, -0.006171822547912598, 9.517237663269043, 1.2386664152145386, -0.7417993545532227, 55.21885299682617, 5.516526699066162, -6.9263505935668945, -0.930419921875, -0.475830078125, 0.005126953125, 0, 
113, 2837237316, 0.08976878970861435, 0.7309589982032776, -0.048630986362695694, 0.6747412085533142, 0.9999915957450867, 0.004043718799948692, 0.00039979442954063416, -0.0005430290475487709, 0.07991558313369751, 0.00956106185913086, -0.007494509220123291, 9.58998966217041, 1.1489434242248535, -0.9001847505569458, 55.60749816894531, 5.497802734375, -7.467504024505615, -0.927734375, -0.474853515625, 0.010498046875, 0, 
114, 2837245649, 0.08723921328783035, 0.7310188412666321, -0.0454382449388504, 0.6752305626869202, 0.9999915957450867, 0.004036964848637581, 0.0004556626081466675, -0.0005679531022906303, 0.0798414945602417, 0.008941650390625, -0.008008241653442383, 9.58119010925293, 1.0746041536331177, -0.9609954953193665, 55.514625549316406, 6.266078472137451, -7.8102498054504395, -0.927734375, -0.474365234375, 0.015380859375, 0, 
115, 2837253982, 0.0851663127541542, 0.7309332489967346, -0.04174657538533211, 0.675825834274292, 0.9999912977218628, 0.004088869318366051, 0.000516258180141449, -0.0006136083975434303, 0.07944011688232422, 0.008684933185577393, -0.008406102657318115, 9.533075332641602, 1.043960452079773, -1.0081144571304321, 56.2284049987793, 7.099364280700684, -8.43808364868164, -0.92529296875, -0.473388671875, 0.018310546875, 0, 
116, 2837262315, 0.08266118913888931, 0.7308980226516724, -0.038444384932518005, 0.6763706803321838, 0.9999912977218628, 0.00408720038831234, 0.0005727354437112808, -0.0006540277972817421, 0.07906872034072876, 0.00919806957244873, -0.00835418701171875, 9.488478660583496, 1.1059226989746094, -1.0016224384307861, 56.20545959472656, 7.876016616821289, -8.993914604187012, -0.92333984375, -0.47314453125, 0.025146484375, 0, 
117, 2837270648, 0.08062682300806046, 0.7307382225990295, -0.034679729491472244, 0.6769922971725464, 0.9999911785125732, 0.00410153903067112, 0.0006150584667921066, -0.000707658939063549, 0.0780213475227356, 0.008972525596618652, -0.008430182933807373, 9.36279582977295, 1.0792244672775269, -1.0103232860565186, 56.402626037597656, 8.458024024963379, -9.731426239013672, -0.9248046875, -0.474365234375, 0.028076171875, 0, 
118, 2837278981, 0.07819315046072006, 0.7306098937988281, -0.03131045028567314, 0.6775802969932556, 0.9999911785125732, 0.004074255004525185, 0.0006771832704544067, -0.0007432876154780388, 0.07843017578125, 0.009404957294464111, -0.008769333362579346, 9.41186809539795, 1.1313509941101074, -1.05059015750885, 56.027435302734375, 9.312337875366211, -10.2213773727417, -0.9248046875, -0.474609375, 0.029052734375, 0, 
119, 2837287314, 0.07622212171554565, 0.7303866744041443, -0.02753855288028717, 0.6782088875770569, 0.999991238117218, 0.004052087664604187, 0.00068671815097332, -0.0007712403312325478, 0.07705658674240112, 0.01007455587387085, -0.008936405181884766, 9.246963500976562, 1.2117847204208374, -1.0709633827209473, 55.722599029541016, 9.44345760345459, -10.6057710647583, -0.923583984375, -0.4736328125, 0.034423828125, 0, 
120, 2837295647, 0.07380685955286026, 0.7302044034004211, -0.024185217916965485, 0.6787999868392944, 0.9999912977218628, 0.004045713692903519, 0.0007170625030994415, -0.0007409965619444847, 0.07830679416656494, 0.012403905391693115, -0.009069859981536865, 9.396867752075195, 1.4910894632339478, -1.0877139568328857, 55.63493347167969, 9.860739707946777, -10.189870834350586, -0.922607421875, -0.47314453125, 0.039794921875, 0, 
121, 2837303980, 0.0718073770403862, 0.7298992872238159, -0.020545514300465584, 0.679462194442749, 0.9999915957450867, 0.00397467240691185, 0.000776996836066246, -0.0006667030975222588, 0.0787932276725769, 0.013985216617584229, -0.0071724653244018555, 9.455114364624023, 1.6811753511428833, -0.8600581288337708, 54.65800857543945, 10.684930801391602, -9.168217658996582, -0.920166015625, -0.47314453125, 0.041748046875, 0, 
122, 2837312313, 0.06939674913883209, 0.7296041250228882, -0.01743124984204769, 0.6801165342330933, 0.9999920129776001, 0.003872891888022423, 0.0008243173360824585, -0.0005613537505269051, 0.079723060131073, 0.015230774879455566, -0.00692063570022583, 9.56680679321289, 1.8299223184585571, -0.829704225063324, 53.258358001708984, 11.335660934448242, -7.7194976806640625, -0.921630859375, -0.47314453125, 0.042724609375, 0, 
123, 2837320646, 0.06739281117916107, 0.7292369604110718, -0.014122461900115013, 0.6807880997657776, 0.9999925494194031, 0.0037463251501321793, 0.0008196122944355011, -0.0004271799698472023, 0.08036792278289795, 0.016262471675872803, -0.005594432353973389, 9.644251823425293, 1.9531811475753784, -0.6707667708396912, 51.517852783203125, 11.270956993103027, -5.874395847320557, -0.922119140625, -0.466796875, 0.043212890625, 0, 
124, 2837328979, 0.06507031619548798, 0.7288942337036133, -0.011449006386101246, 0.6814311146736145, 0.9999935030937195, 0.003504851832985878, 0.0008211340755224228, -0.0002987245097756386, 0.08081799745559692, 0.017738521099090576, -0.004963040351867676, 9.698399543762207, 2.129518747329712, -0.5950864553451538, 48.197200775146484, 11.291878700256348, -4.107929706573486, -0.923095703125, -0.47119140625, 0.04931640625, 0, 
125, 2837337312, 0.06325648725032806, 0.7285054922103882, -0.008588951081037521, 0.6820592284202576, 0.9999942183494568, 0.003298310562968254, 0.0007859524339437485, -0.00023312028497457504, 0.08125978708267212, 0.016122758388519287, -0.004541873931884766, 9.751540184020996, 1.9352856874465942, -0.5437631011009216, 45.356929779052734, 10.808075904846191, -3.205768585205078, -0.920166015625, -0.4697265625, 0.0537109375, 0, 
126, 2837345645, 0.06115195155143738, 0.7281809449195862, -0.006264674477279186, 0.6826227903366089, 0.9999948740005493, 0.0031080786138772964, 0.0007317569106817245, -0.00019716937094926834, 0.08120512962341309, 0.014769434928894043, -0.004475116729736328, 9.745048522949219, 1.772656798362732, -0.535415530204773, 42.740928649902344, 10.062798500061035, -2.7113864421844482, -0.921630859375, -0.46923828125, 0.05224609375, 0, 
127, 2837353978, 0.05957416817545891, 0.7278141975402832, -0.003653517458587885, 0.6831721067428589, 0.9999953508377075, 0.0029561053961515427, 0.0007054712623357773, -0.00021709781140089035, 0.0813676118850708, 0.013785183429718018, -0.0030240416526794434, 9.764400482177734, 1.6553356647491455, -0.3609054386615753, 40.651058197021484, 9.701330184936523, -2.985433340072632, -0.920654296875, -0.46875, 0.0556640625, 0, 
128, 2837362311, 0.05772649496793747, 0.7275168299674988, -0.0014834090834483504, 0.6836554408073425, 0.999995768070221, 0.002816818654537201, 0.0006476901471614838, -0.0002642245963215828, 0.08126533031463623, 0.011763274669647217, -0.003955483436584473, 9.752161979675293, 1.4128926992416382, -0.47233518958091736, 38.73564147949219, 8.906747817993164, -3.63349986076355, -0.91943359375, -0.467529296875, 0.060546875, 0, 
129, 2837370644, 0.05639732629060745, 0.7272013425827026, 0.0010209992760792375, 0.6841026544570923, 0.9999961256980896, 0.0027037113904953003, 0.0005934517830610275, -0.00032129231840372086, 0.08102506399154663, 0.010548889636993408, -0.0037917494773864746, 9.723258972167969, 1.267816185951233, -0.45267823338508606, 37.180233001708984, 8.160883903503418, -4.418269157409668, -0.9208984375, -0.4677734375, 0.06201171875, 0, 
130, 2837378977, 0.05478408560156822, 0.7269448637962341, 0.0031353123486042023, 0.6844998002052307, 0.9999963641166687, 0.002610238268971443, 0.0005548391491174698, -0.00038790423423051834, 0.08052963018417358, 0.010255634784698486, -0.0038952231407165527, 9.663722038269043, 1.2332558631896973, -0.4652981460094452, 35.89482879638672, 7.6299004554748535, -5.334285736083984, -0.92041015625, -0.465087890625, 0.06103515625, 0, 
131, 2837387310, 0.05367579311132431, 0.7266750931739807, 0.005595211870968342, 0.6848583817481995, 0.9999966025352478, 0.0025137774646282196, 0.0004978664219379425, -0.0004578428342938423, 0.0795697569847107, 0.011131644248962402, -0.005342662334442139, 9.54845905303955, 1.3386069536209106, -0.6397536396980286, 34.56834411621094, 6.846436500549316, -6.296050071716309, -0.9189453125, -0.467041015625, 0.0654296875, 0, 
132, 2837395643, 0.05229576304554939, 0.7264758944511414, 0.007691241335123777, 0.6851560473442078, 0.9999967813491821, 0.0024316012859344482, 0.0004419703036546707, -0.0005383593961596489, 0.0797303318977356, 0.010533392429351807, -0.0055509209632873535, 9.567634582519531, 1.2675949335098267, -0.664983332157135, 33.43828582763672, 6.077776908874512, -7.403276443481445, -0.92041015625, -0.466552734375, 0.06640625, 0, 
133, 2837403976, 0.05137953907251358, 0.7262715101242065, 0.010141024366021156, 0.6854101419448853, 0.9999969601631165, 0.0023700371384620667, 0.00038004666566848755, -0.0006005028262734413, 0.07937467098236084, 0.012106359004974365, -0.006202220916748047, 9.524752616882324, 1.4567691087722778, -0.744123101234436, 32.59169006347656, 5.226231098175049, -8.257845878601074, -0.92138671875, -0.467041015625, 0.06884765625, 0, 
134, 2837412309, 0.05018109083175659, 0.7261232733726501, 0.012186846695840359, 0.6856227517127991, 0.9999971985816956, 0.0022686701267957687, 0.00034170225262641907, -0.000629412941634655, 0.07935696840286255, 0.01320427656173706, -0.007266819477081299, 9.522516250610352, 1.5885937213897705, -0.8723973035812378, 31.197729110717773, 4.698935508728027, -8.655404090881348, -0.92138671875, -0.470458984375, 0.068359375, 0, 
135, 2837420642, 0.04940956085920334, 0.7259916663169861, 0.014508775435388088, 0.6857727766036987, 0.9999973773956299, 0.0021808240562677383, 0.00025352463126182556, -0.0006225360557436943, 0.07915723323822021, 0.013511180877685547, -0.0081559419631958, 9.49848461151123, 1.625190258026123, -0.9798842072486877, 29.98971176147461, 3.486356496810913, -8.560835838317871, -0.9189453125, -0.468017578125, 0.0712890625, 0, 
136, 2837428975, 0.048350051045417786, 0.7259650230407715, 0.016387559473514557, 0.6858341693878174, 0.9999976754188538, 0.0020612534135580063, 0.00013894028961658478, -0.0006083184853196144, 0.07951509952545166, 0.014142096042633057, -0.008788228034973145, 9.541303634643555, 1.7007572650909424, -1.0568097829818726, 28.34542465209961, 1.9106440544128418, -8.365321159362793, -0.91943359375, -0.466552734375, 0.076171875, 0, 
137, 2837437308, 0.04770864173769951, 0.7259547114372253, 0.01852494105696678, 0.6858357191085815, 0.9999979138374329, 0.0019667651504278183, 0.00006172060966491699, -0.0005898987874388695, 0.08034956455230713, 0.014383971691131592, -0.008963465690612793, 9.641376495361328, 1.7297258377075195, -1.078468918800354, 27.046064376831055, 0.8487538695335388, -8.112021446228027, -0.91650390625, -0.468017578125, 0.07861328125, 0, 
138, 2837445641, 0.04675855115056038, 0.7259901762008667, 0.020224953070282936, 0.6858155727386475, 0.9999980926513672, 0.0018638186156749725, 0.00002710893750190735, -0.0005555367097258568, 0.08072036504745483, 0.01429373025894165, -0.009966254234313965, 9.685908317565918, 1.7184677124023438, -1.198936104774475, 25.630388259887695, 0.37278980016708374, -7.639488220214844, -0.91650390625, -0.465087890625, 0.07763671875, 0, 
139, 2837453974, 0.046200525015592575, 0.7260072231292725, 0.02219218760728836, 0.6857744455337524, 0.9999982714653015, 0.0017903950065374374, 0.000013990327715873718, -0.0005300147458910942, 0.08146935701370239, 0.01376432180404663, -0.009492218494415283, 9.775853157043457, 1.6549253463745117, -1.1419343948364258, 24.620697021484375, 0.1923886239528656, -7.2885212898254395, -0.916015625, -0.466552734375, 0.08154296875, 0, 
140, 2837462307, 0.045296937227249146, 0.7259812355041504, 0.023770689964294434, 0.685809314250946, 0.9999983310699463, 0.0017427466809749603, 0.00010282546281814575, -0.0004973122850060463, 0.08279317617416382, 0.013235867023468018, -0.008317232131958008, 9.93488597869873, 1.5915805101394653, -0.9998630881309509, 23.96546173095703, 1.4140090942382812, -6.838812351226807, -0.915283203125, -0.470947265625, 0.08349609375, 0, 
141, 2837470640, 0.04472437873482704, 0.7258426547050476, 0.025628946721553802, 0.6859267950057983, 0.9999983906745911, 0.0017140824347734451, 0.00024357996881008148, -0.0004429379478096962, 0.08320015668869019, 0.012534797191619873, -0.0073244571685791016, 9.983965873718262, 1.5071470737457275, -0.8791176080703735, 23.57128143310547, 3.3496007919311523, -6.091080665588379, -0.914794921875, -0.468017578125, 0.0849609375, 0, 
142, 2837478973, 0.043780192732810974, 0.7256335616111755, 0.02710588090121746, 0.6861521601676941, 0.9999984502792358, 0.0016896110028028488, 0.00036348775029182434, -0.0003907056525349617, 0.08265131711959839, 0.012428343296051025, -0.006478846073150635, 9.918254852294922, 1.4940143823623657, -0.7764121890068054, 23.23476219177246, 4.998517990112305, -5.372806549072266, -0.913330078125, -0.467041015625, 0.08447265625, 0, 
143, 2837487306, 0.04316704347729683, 0.7253292202949524, 0.028865717351436615, 0.6864408254623413, 0.9999984502792358, 0.001662563532590866, 0.00048553571105003357, -0.0003491705283522606, 0.08174353837966919, 0.012123286724090576, -0.005595266819000244, 9.809433937072754, 1.4571682214736938, -0.6691104173660278, 22.862815856933594, 6.676865577697754, -4.801634311676025, -0.915283203125, -0.466552734375, 0.08984375, 0, 
144, 2837495639, 0.04221909120678902, 0.724972128868103, 0.030268577858805656, 0.6868164539337158, 0.9999984502792358, 0.0016308389604091644, 0.000571100041270256, -0.00033105630427598953, 0.08005064725875854, 0.011758267879486084, -0.0055522918701171875, 9.606374740600586, 1.413146734237671, -0.6631135940551758, 22.426551818847656, 7.853507995605469, -4.552535057067871, -0.914306640625, -0.468505859375, 0.083984375, 0, 
145, 2837503972, 0.04164733365178108, 0.7246018052101135, 0.03197189420461655, 0.6871650218963623, 0.9999985098838806, 0.0015876870602369308, 0.0005740504711866379, -0.0003454228863120079, 0.07805722951889038, 0.011117756366729736, -0.005998551845550537, 9.367193222045898, 1.336286187171936, -0.7165854573249817, 21.833148956298828, 7.89408016204834, -4.75009822845459, -0.915771484375, -0.464599609375, 0.0888671875, 0, 
146, 2837512305, 0.040779512375593185, 0.7242910861968994, 0.03334132954478264, 0.6874794960021973, 0.9999986290931702, 0.0015534907579421997, 0.0004912745207548141, -0.0003621121868491173, 0.07669353485107422, 0.010746181011199951, -0.006701052188873291, 9.203519821166992, 1.2916673421859741, -0.8016541600227356, 21.362897872924805, 6.755783557891846, -4.979601860046387, -0.914794921875, -0.465087890625, 0.09130859375, 0, 
147, 2837520638, 0.04025794565677643, 0.7240763306617737, 0.03500213846564293, 0.6876537203788757, 0.9999986886978149, 0.0015328861773014069, 0.00034063495695590973, -0.0003615347668528557, 0.0764385461807251, 0.01075601577758789, -0.007452249526977539, 9.172830581665039, 1.2927168607711792, -0.8931624293327332, 21.07954978942871, 4.684256553649902, -4.97166109085083, -0.913330078125, -0.4638671875, 0.08837890625, 0, 
148, 2837528971, 0.03939313441514969, 0.7239735126495361, 0.036338623613119125, 0.6877428293228149, 0.9999987483024597, 0.0015447679907083511, 0.00018401071429252625, -0.0003414405509829521, 0.07693088054656982, 0.01114112138748169, -0.007472813129425049, 9.231783866882324, 1.338752269744873, -0.8971402645111084, 21.242944717407227, 2.5304312705993652, -4.695334434509277, -0.913330078125, -0.46630859375, 0.0908203125, 0, 
149, 2837537304, 0.038814157247543335, 0.723946750164032, 0.03795952722430229, 0.6877163052558899, 0.9999987483024597, 0.001560460776090622, 0.00007228553295135498, -0.0003051022067666054, 0.07849228382110596, 0.011689603328704834, -0.007966756820678711, 9.419092178344727, 1.4041895866394043, -0.9575578570365906, 21.458742141723633, 0.9940375685691833, -4.195626258850098, -0.911376953125, -0.4658203125, 0.0927734375, 0, 
150, 2837545637, 0.03787596896290779, 0.7239574790000916, 0.039260074496269226, 0.6876842379570007, 0.9999986886978149, 0.0015819985419511795, 0.000019779428839683533, -0.00026466231793165207, 0.07979881763458252, 0.012080013751983643, -0.007824599742889404, 9.57587718963623, 1.4507033824920654, -0.941085696220398, 21.754920959472656, 0.27199769020080566, -3.6395153999328613, -0.911376953125, -0.4658203125, 0.09716796875, 0, 
151, 2837553970, 0.037217848002910614, 0.723977267742157, 0.04084746912121773, 0.6876071691513062, 0.9999986886978149, 0.0015974324196577072, 0.000012157484889030457, -0.00023580808192491531, 0.08110255002975464, 0.012798964977264404, -0.007884562015533447, 9.732344627380371, 1.536715030670166, -0.9485077857971191, 21.967159271240234, 0.16718417406082153, -3.242724895477295, -0.911865234375, -0.46533203125, 0.0986328125, 0, 
152, 2837562303, 0.0362391471862793, 0.7239716053009033, 0.04212714731693268, 0.6875882148742676, 0.9999986886978149, 0.001595979556441307, 0.000041579827666282654, -0.00022107642143964767, 0.08180338144302368, 0.012983620166778564, -0.0072762370109558105, 9.81649112701416, 1.558870792388916, -0.8752583861351013, 21.94718360900879, 0.5717868804931641, -3.04014253616333, -0.910888671875, -0.4658203125, 0.10205078125, 0, 
153, 2837570636, 0.03556472808122635, 0.7239218950271606, 0.04367682710289955, 0.6875787973403931, 0.9999987483024597, 0.001576848328113556, 0.0001145191490650177, -0.00020556990057229996, 0.08167129755020142, 0.013303399085998535, -0.006952404975891113, 9.800715446472168, 1.597167730331421, -0.8357124924659729, 21.684099197387695, 1.5748151540756226, -2.8269035816192627, -0.915283203125, -0.4677734375, 0.10107421875, 0, 
154, 2837578969, 0.03462130203843117, 0.7238329648971558, 0.04490169510245323, 0.6876417398452759, 0.9999988079071045, 0.0015264060348272324, 0.00015476346015930176, -0.00020521041005849838, 0.08144396543502808, 0.013157784938812256, -0.006027817726135254, 9.773455619812012, 1.579893946647644, -0.724260687828064, 20.99043846130371, 2.1282360553741455, -2.8219594955444336, -0.913330078125, -0.46435546875, 0.10009765625, 0, 
155, 2837587302, 0.033996935933828354, 0.7237372398376465, 0.04640627279877663, 0.6876737475395203, 0.9999988079071045, 0.0015053041279315948, 0.00017665326595306396, -0.0002143578603863716, 0.08013033866882324, 0.01310032606124878, -0.00567173957824707, 9.61580753326416, 1.5731432437896729, -0.6813074350357056, 20.700252532958984, 2.4292545318603516, -2.9477508068084717, -0.913330078125, -0.46484375, 0.10546875, 0, 
156, 2837595635, 0.033106811344623566, 0.7236476540565491, 0.04764490947127342, 0.6877267360687256, 0.9999988079071045, 0.0014977119863033295, 0.00014639832079410553, -0.00025145430117845535, 0.078929603099823, 0.012667655944824219, -0.005285084247589111, 9.471641540527344, 1.521608829498291, -0.6351251602172852, 20.595848083496094, 2.013202667236328, -3.4578843116760254, -0.911376953125, -0.46484375, 0.10595703125, 0, 
157, 2837603968, 0.032548483461141586, 0.7235972881317139, 0.049217965453863144, 0.6876957416534424, 0.9999988079071045, 0.0015084072947502136, 0.00010084174573421478, -0.0003154659643769264, 0.07867181301116943, 0.012003302574157715, -0.005383729934692383, 9.440606117248535, 1.4424563646316528, -0.647294819355011, 20.7429256439209, 1.3867294788360596, -4.338143348693848, -0.909912109375, -0.46435546875, 0.10791015625, 0, 
158, 2837612301, 0.03174036368727684, 0.7235640287399292, 0.05055522173643112, 0.6876716613769531, 0.9999988079071045, 0.0015118606388568878, 0.00005128420889377594, -0.0003781421110033989, 0.07897680997848511, 0.011769413948059082, -0.005826354026794434, 9.477095603942871, 1.414925217628479, -0.7008495330810547, 20.79041862487793, 0.7052370309829712, -5.200038433074951, -0.908447265625, -0.462890625, 0.10693359375, 0, 
159, 2837620634, 0.031257301568984985, 0.7235475182533264, 0.05218116566538811, 0.6875894665718079, 0.9999988079071045, 0.0014935936778783798, 0.0000394526869058609, -0.0004124501720070839, 0.07980889081954956, 0.012237489223480225, -0.005941569805145264, 9.576869010925293, 1.471455454826355, -0.714842677116394, 20.53921890258789, 0.5425353050231934, -5.671826362609863, -0.908447265625, -0.462890625, 0.10595703125, 0, 
160, 2837628967, 0.030547918751835823, 0.7235230207443237, 0.05352014675736427, 0.6875442266464233, 0.9999988675117493, 0.0014430228620767593, 0.000025169923901557922, -0.0004466129466891289, 0.08028203248977661, 0.012852311134338379, -0.006600141525268555, 9.63355541229248, 1.5455149412155151, -0.7940440773963928, 19.84379005432129, 0.3461252450942993, -6.141617298126221, -0.912109375, -0.4638671875, 0.10986328125, 0, 
161, 2837637300, 0.03018658235669136, 0.7235153317451477, 0.055072009563446045, 0.6874455809593201, 0.9999989867210388, 0.0013551823794841766, 0.000014679506421089172, -0.0004500793293118477, 0.08034032583236694, 0.013546466827392578, -0.006509840488433838, 9.640508651733398, 1.628900170326233, -0.7832621932029724, 18.635847091674805, 0.20186585187911987, -6.189284324645996, -0.90869140625, -0.4638671875, 0.1142578125, 0, 
162, 2837645633, 0.0296309981495142, 0.7234927415847778, 0.05625344067811966, 0.687397837638855, 0.9999991655349731, 0.001223718747496605, 0.000009143725037574768, -0.0004375213757157326, 0.07988238334655762, 0.01418071985244751, -0.006445646286010742, 9.585527420043945, 1.7050198316574097, -0.775516152381897, 16.828018188476562, 0.12574031949043274, -6.016592979431152, -0.908203125, -0.46484375, 0.11328125, 0, 
163, 2837653966, 0.029445910826325417, 0.7235128283500671, 0.05757898464798927, 0.6872749328613281, 0.9999993443489075, 0.0010736603289842606, -0.000036454759538173676, -0.00041211675852537155, 0.07937312126159668, 0.01422792673110962, -0.006169140338897705, 9.524431228637695, 1.710519552230835, -0.7424871325492859, 14.764483451843262, -0.5013090968132019, -5.667240619659424, -0.90771484375, -0.4638671875, 0.11572265625, 0, 
164, 2837662299, 0.029074613004922867, 0.7235650420188904, 0.05852620676159859, 0.6871556043624878, 0.999999463558197, 0.0009357891976833344, -0.0001115584746003151, -0.00039170216768980026, 0.07880741357803345, 0.013859033584594727, -0.005989372730255127, 9.456534385681152, 1.666185975074768, -0.721369743347168, 12.868544578552246, -1.5341010093688965, -5.386508941650391, -0.9072265625, -0.46337890625, 0.11572265625, 0, 
165, 2837670632, 0.029042329639196396, 0.7237006425857544, 0.05967169627547264, 0.6869156956672668, 0.9999995231628418, 0.0008494127541780472, -0.0002129664644598961, -0.0003872578963637352, 0.07784610986709595, 0.01393216848373413, -0.006495296955108643, 9.341087341308594, 1.6749045848846436, -0.7829033732414246, 11.680732727050781, -2.928616762161255, -5.325392246246338, -0.90625, -0.4658203125, 0.1162109375, 0, 
166, 2837678965, 0.02880844846367836, 0.723864734172821, 0.060551468282938004, 0.686675488948822, 0.9999995231628418, 0.0008005071431398392, -0.0002859989181160927, -0.000433274544775486, 0.0778856873512268, 0.013423740863800049, -0.006045997142791748, 9.345736503601074, 1.6144328117370605, -0.7295711636543274, 11.008204460144043, -3.9329254627227783, -5.958191871643066, -0.90576171875, -0.466064453125, 0.11767578125, 0, 
167, 2837687298, 0.02887730672955513, 0.7240726947784424, 0.061688993126153946, 0.6863521337509155, 0.9999995231628418, 0.0007777251303195953, -0.0003282865509390831, -0.0004527634009718895, 0.07807165384292603, 0.0128098726272583, -0.006496250629425049, 9.368014335632324, 1.540905475616455, -0.7838824391365051, 10.694915771484375, -4.514444828033447, -6.226192474365234, -0.9052734375, -0.463623046875, 0.12060546875, 0, 
168, 2837695631, 0.028703484684228897, 0.7242617607116699, 0.06254927814006805, 0.6860820651054382, 0.9999995827674866, 0.0007464215159416199, -0.00032904092222452164, -0.00045891012996435165, 0.0789264440536499, 0.012530207633972168, -0.00736391544342041, 9.47058391571045, 1.5073219537734985, -0.8878879547119141, 10.264445304870605, -4.524819850921631, -6.310720920562744, -0.90283203125, -0.468994140625, 0.1201171875, 0, 
169, 2837703964, 0.028816619887948036, 0.7244424223899841, 0.06361187249422073, 0.6857887506484985, 0.9999996423721313, 0.0006914157420396805, -0.0002918308600783348, -0.0004348987713456154, 0.07953602075576782, 0.012530624866485596, -0.00821775197982788, 9.543770790100098, 1.507169485092163, -0.9899584650993347, 9.508030891418457, -4.013123989105225, -5.980527877807617, -0.90185546875, -0.467041015625, 0.1220703125, 0, 
170, 2837712297, 0.028684094548225403, 0.7245646119117737, 0.06436274200677872, 0.6855952143669128, 0.9999997019767761, 0.0006348881870508194, -0.00023356173187494278, -0.00040910299867391586, 0.07983362674713135, 0.012943804264068604, -0.008499979972839355, 9.579541206359863, 1.556593894958496, -1.0232667922973633, 8.730690002441406, -3.2118334770202637, -5.625795841217041, -0.90087890625, -0.468017578125, 0.12353515625, 0, 
171, 2837720630, 0.028866874054074287, 0.724672794342041, 0.06527350842952728, 0.6853871941566467, 0.9999997615814209, 0.0005287900567054749, -0.0001861145719885826, -0.0003807945176959038, 0.08001124858856201, 0.014010727405548096, -0.008150160312652588, 9.600933074951172, 1.684409737586975, -0.9806632995605469, 7.271677494049072, -2.559361696243286, -5.236510276794434, -0.9033203125, -0.465576171875, 0.12158203125, 0, 
172, 2837728963, 0.028867987915873528, 0.7247210144996643, 0.06584025919437408, 0.6852819919586182, 0.9999998211860657, 0.0004040561616420746, -0.0001329304650425911, -0.0003686612471938133, 0.07941704988479614, 0.014566779136657715, -0.007780492305755615, 9.529630661010742, 1.7513278722763062, -0.9357381463050842, 5.556394577026367, -1.8279985189437866, -5.06965970993042, -0.9013671875, -0.470947265625, 0.123046875, 0, 
173, 2837737296, 0.029224619269371033, 0.7247799634933472, 0.06653180718421936, 0.6851378083229065, 0.9999998807907104, 0.0002463366836309433, -0.0001207524910569191, -0.00034724269062280655, 0.0788530707359314, 0.014662086963653564, -0.007758677005767822, 9.46197509765625, 1.7627761363983154, -0.9327577948570251, 3.3875086307525635, -1.6605324745178223, -4.775121212005615, -0.8994140625, -0.467529296875, 0.12548828125, 0, 
174, 2837745629, 0.02943667583167553, 0.7247954607009888, 0.06684211641550064, 0.6850821375846863, 0.9999999403953552, 0.00007142685353755951, -0.00009618047624826431, -0.000327148474752903, 0.07831543684005737, 0.015011847019195557, -0.007800459861755371, 9.39755916595459, 1.8044472932815552, -0.9371069073677063, 0.9822291135787964, -1.3226295709609985, -4.4987945556640625, -0.90283203125, -0.467041015625, 0.12548828125, 0, 
175, 2837753962, 0.03000199794769287, 0.7248236536979675, 0.0672832503914833, 0.6849844455718994, 0.9999999403953552, -0.00008084345608949661, -0.0000855298712849617, -0.00031200889497995377, 0.0782696008682251, 0.014845430850982666, -0.007976531982421875, 9.392045974731445, 1.784747838973999, -0.9579291343688965, -1.1117219924926758, -1.176167368888855, -4.290602207183838, -0.900390625, -0.467529296875, 0.12548828125, 0, 
176, 2837762295, 0.03039492852985859, 0.7248398065567017, 0.06731609255075455, 0.6849467754364014, 0.9999999403953552, -0.00025083404034376144, -0.00010441150516271591, -0.0002482933923602104, 0.07833331823348999, 0.015110790729522705, -0.007703602313995361, 9.399772644042969, 1.8161896467208862, -0.9250482320785522, -3.4493534564971924, -1.4358187913894653, -3.4144158363342285, -0.8984375, -0.467529296875, 0.12841796875, 0, 
177, 2837770628, 0.03110932931303978, 0.724913477897644, 0.06742239743471146, 0.6848262548446655, 0.9999998807907104, -0.00041581597179174423, -0.000151793472468853, -0.00017112214118242264, 0.07831305265426636, 0.016121506690979004, -0.006910562515258789, 9.39745807647705, 1.936725378036499, -0.8299588561058044, -5.718109130859375, -2.0873935222625732, -2.3531923294067383, -0.8994140625, -0.470947265625, 0.12939453125, 0, 
178, 2837778961, 0.031630344688892365, 0.7249866127967834, 0.06713544577360153, 0.6847531795501709, 0.9999998211860657, -0.0005584331229329109, -0.00018777232617139816, -0.00010059494525194168, 0.07899034023284912, 0.01677936315536499, -0.006543874740600586, 9.47886848449707, 2.014997720718384, -0.785952091217041, -7.679314136505127, -2.582157850265503, -1.3833351135253906, -0.89794921875, -0.468505859375, 0.12744140625, 0, 
179, 2837787294, 0.0324438251554966, 0.7251024842262268, 0.06694316864013672, 0.6846112012863159, 0.9999997615814209, -0.0006894944235682487, -0.0002122698351740837, -0.000021352432668209076, 0.07962304353713989, 0.0168725848197937, -0.005973994731903076, 9.554957389831543, 2.025470495223999, -0.7175227403640747, -9.481609344482422, -2.919036865234375, -0.2936287820339203, -0.8984375, -0.470947265625, 0.1259765625, 0, 
180, 2837795627, 0.03305874392390251, 0.7251926064491272, 0.06636214256286621, 0.6845428943634033, 0.9999996423721313, -0.0008274642750620842, -0.00021224375814199448, 0.00005064159631729126, 0.0798378586769104, 0.015903174877166748, -0.005986273288726807, 9.5808687210083, 1.908568263053894, -0.7188437581062317, -11.378907203674316, -2.9186782836914062, 0.6963999271392822, -0.89697265625, -0.470947265625, 0.12548828125, 0, 
181, 2837803960, 0.033964622765779495, 0.7253040075302124, 0.06590285897254944, 0.6844248175621033, 0.9999995231628418, -0.0009407298639416695, -0.00020874012261629105, 0.00010997429490089417, 0.08022910356521606, 0.014552474021911621, -0.006418585777282715, 9.627908706665039, 1.7460280656814575, -0.7706331610679626, -12.936482429504395, -2.870497941970825, 1.5123158693313599, -0.89794921875, -0.470947265625, 0.123046875, 0, 
182, 2837812293, 0.034666210412979126, 0.7253931760787964, 0.06509193032979965, 0.6843729019165039, 0.9999994039535522, -0.001048658974468708, -0.00021372083574533463, 0.00015966594219207764, 0.07982701063156128, 0.013570547103881836, -0.007000267505645752, 9.579704284667969, 1.6278871297836304, -0.8404030799865723, -14.420677185058594, -2.938990831375122, 2.195652961730957, -0.90087890625, -0.470458984375, 0.12353515625, 0, 
183, 2837820626, 0.035677991807460785, 0.7255033850669861, 0.06441847234964371, 0.6842678189277649, 0.9999992847442627, -0.0011649234220385551, -0.0002147415652871132, 0.00019109249114990234, 0.07968389987945557, 0.013160169124603271, -0.007174313068389893, 9.562565803527832, 1.578464388847351, -0.8611646294593811, -16.01949119567871, -2.9530277252197266, 2.6278162002563477, -0.8935546875, -0.471923828125, 0.12451171875, 0, 
184, 2837828959, 0.03652411326766014, 0.7255918979644775, 0.06342750787734985, 0.6842218637466431, 0.9999991655349731, -0.0012769093737006187, -0.0002252841368317604, 0.00019251182675361633, 0.0795973539352417, 0.012963056564331055, -0.007591545581817627, 9.552160263061523, 1.554949164390564, -0.9111886024475098, -17.559473037719727, -3.0980043411254883, 2.647334575653076, -0.89990234375, -0.473876953125, 0.11962890625, 0, 
185, 2837837292, 0.037703365087509155, 0.725713849067688, 0.06259767711162567, 0.684104859828949, 0.9999989867210388, -0.001392456702888012, -0.0002485578879714012, 0.0001857951283454895, 0.07968610525131226, 0.013663530349731445, -0.006968796253204346, 9.562810897827148, 1.6390796899795532, -0.8363825678825378, -19.14842987060547, -3.4180545806884766, 2.5549700260162354, -0.900390625, -0.471923828125, 0.12255859375, 0, 
186, 2837845625, 0.03871066868305206, 0.7258206009864807, 0.0614641010761261, 0.6840381622314453, 0.9999988079071045, -0.0014892937615513802, -0.0002689966931939125, 0.00018720701336860657, 0.07984322309494019, 0.014163792133331299, -0.006741583347320557, 9.581670761108398, 1.699134349822998, -0.8090686202049255, -20.480085372924805, -3.6991190910339355, 2.574384927749634, -0.8984375, -0.473876953125, 0.1220703125, 0, 
187, 2837853958, 0.04001844674348831, 0.7259645462036133, 0.06046406179666519, 0.6838992834091187, 0.9999986290931702, -0.001600087620317936, -0.00029457826167345047, 0.0002177748829126358, 0.0799860954284668, 0.015499532222747803, -0.006067156791687012, 9.598904609680176, 1.8590971231460571, -0.7279404997825623, -22.00367546081543, -4.050905704498291, 2.9947409629821777, -0.90234375, -0.475341796875, 0.12109375, 0, 
188, 2837862291, 0.04117821529507637, 0.7260843515396118, 0.059104613959789276, 0.6838221549987793, 0.9999983906745911, -0.0017530852928757668, -0.000304357148706913, 0.0002482850104570389, 0.0795782208442688, 0.01605015993118286, -0.006096601486206055, 9.55002212524414, 1.925010323524475, -0.7311533093452454, -24.10763168334961, -4.185380935668945, 3.4143025875091553, -0.8974609375, -0.479736328125, 0.119140625, 0, 
189, 2837870624, 0.04266840219497681, 0.7262308597564697, 0.05781770497560501, 0.6836851835250854, 0.9999980330467224, -0.0019286060705780983, -0.0003197016194462776, 0.00029931217432022095, 0.0790327787399292, 0.015467047691345215, -0.006321609020233154, 9.484623908996582, 1.8547464609146118, -0.75807785987854, -26.521318435668945, -4.396391868591309, 4.1160054206848145, -0.8984375, -0.476318359375, 0.11865234375, 0, 
190, 2837878957, 0.0440012589097023, 0.7263609170913696, 0.05611998960375786, 0.6836040616035461, 0.9999976754188538, -0.0021091988310217857, -0.000339350663125515, 0.00037721171975135803, 0.07888835668563843, 0.0151938796043396, -0.006853163242340088, 9.467391014099121, 1.8215006589889526, -0.8217803239822388, -29.004751205444336, -4.666597366333008, 5.1872453689575195, -0.89794921875, -0.480224609375, 0.11279296875, 0, 
191, 2837887290, 0.04564952105283737, 0.7265363335609436, 0.05449005961418152, 0.6834413409233093, 0.9999972581863403, -0.0022749071940779686, -0.0003849668428301811, 0.00044055841863155365, 0.07853657007217407, 0.014426648616790771, -0.007288515567779541, 9.425190925598145, 1.7291059494018555, -0.8743486404418945, -31.283498764038086, -5.293890476226807, 6.058361530303955, -0.89599609375, -0.480224609375, 0.11181640625, 0, 
192, 2837895623, 0.047114938497543335, 0.7267159819602966, 0.05249973013997078, 0.6833066344261169, 0.9999969005584717, -0.0024000080302357674, -0.000433540903031826, 0.0005005095154047012, 0.07916837930679321, 0.013812780380249023, -0.0075067877769470215, 9.50102424621582, 1.6550066471099854, -0.9009934067726135, -33.00383377075195, -5.961860179901123, 6.882782459259033, -0.89794921875, -0.478271484375, 0.109375, 0, 
193, 2837903956, 0.04883855581283569, 0.7269169688224792, 0.05065114423632622, 0.6831113696098328, 0.9999966621398926, -0.002476024441421032, -0.00044181663542985916, 0.0005464199930429459, 0.07975810766220093, 0.013610363006591797, -0.006959736347198486, 9.571877479553223, 1.6301509141921997, -0.8353888392448425, -34.04917526245117, -6.075664043426514, 7.514122486114502, -0.89990234375, -0.47998046875, 0.10546875, 0, 
194, 2837912289, 0.05033526569604874, 0.7270976901054382, 0.048500318080186844, 0.6829664707183838, 0.999996542930603, -0.002531568519771099, -0.00045204441994428635, 0.000596439465880394, 0.08056777715682983, 0.01356196403503418, -0.0060405731201171875, 9.669161796569824, 1.6235665082931519, -0.725151777267456, -34.8129997253418, -6.216312885284424, 8.201969146728516, -0.898681640625, -0.47998046875, 0.1015625, 0, 
195, 2837920622, 0.05209462344646454, 0.7272587418556213, 0.04649054631590843, 0.6828027963638306, 0.9999963045120239, -0.002615555189549923, -0.00040259119123220444, 0.0006358753889799118, 0.08126223087310791, 0.013650894165039062, -0.00507742166519165, 9.752654075622559, 1.6335567235946655, -0.6089598536491394, -35.96794891357422, -5.536254405975342, 8.744275093078613, -0.897216796875, -0.478271484375, 0.1015625, 0, 
196, 2837928955, 0.05370328202843666, 0.727328360080719, 0.04415605217218399, 0.6827589273452759, 0.9999959468841553, -0.0027486952021718025, -0.0003184909000992775, 0.0006546694785356522, 0.08091282844543457, 0.013531267642974854, -0.005997955799102783, 9.710759162902832, 1.619442105293274, -0.7184181213378906, -37.79883575439453, -4.379745006561279, 9.002723693847656, -0.901611328125, -0.48046875, 0.10205078125, 0, 
197, 2837937288, 0.055614084005355835, 0.7273687720298767, 0.041962724179029465, 0.6827013492584229, 0.9999956488609314, -0.00286197941750288, -0.00026351120322942734, 0.0006627999246120453, 0.0804021954536438, 0.012528002262115479, -0.007854104042053223, 9.649396896362305, 1.4997202157974243, -0.9407728910446167, -39.35667419433594, -3.6236894130706787, 9.114531517028809, -0.897216796875, -0.4794921875, 0.09423828125, 0, 
198, 2837945621, 0.05732680857181549, 0.7273514270782471, 0.03951125964522362, 0.6827244758605957, 0.9999955296516418, -0.0029116133227944374, -0.00022237654775381088, 0.0006696600466966629, 0.08000105619430542, 0.010889708995819092, -0.009487569332122803, 9.601130485534668, 1.3037029504776, -1.136887550354004, -40.039215087890625, -3.0580239295959473, 9.208868026733398, -0.905029296875, -0.48193359375, 0.0947265625, 0, 
199, 2837953954, 0.059269968420267105, 0.7272993922233582, 0.037263501435518265, 0.6827403903007507, 0.9999954700469971, -0.0029310444369912148, -0.0001531718298792839, 0.0006771311163902283, 0.07966917753219604, 0.010262131690979004, -0.01050412654876709, 9.561323165893555, 1.2287274599075317, -1.258406162261963, -40.30643081665039, -2.106351375579834, 9.311607360839844, -0.899169921875, -0.48046875, 0.09033203125, 0, 
200, 2837962287, 0.0609881728887558, 0.727167546749115, 0.03476119041442871, 0.6828614473342896, 0.9999953508377075, -0.0029606008902192116, -0.00007733236998319626, 0.0007054153829813004, 0.08081060647964478, 0.009974956512451172, -0.009633839130401611, 9.69841480255127, 1.1936216354370117, -1.1533163785934448, -40.71287155151367, -1.0634405612945557, 9.700559616088867, -0.902587890625, -0.4814453125, 0.0908203125, 0, 
201, 2837970620, 0.06292156130075455, 0.7269695997238159, 0.03238094970583916, 0.6830135583877563, 0.9999951124191284, -0.0030290549620985985, 0.00004062056541442871, 0.0007772110402584076, 0.08217829465866089, 0.010782957077026367, -0.007455766201019287, 9.86283016204834, 1.2890504598617554, -0.8904149532318115, -41.654232025146484, 0.558596134185791, 10.687864303588867, -0.906005859375, -0.48095703125, 0.0869140625, 0, 
202, 2837978953, 0.06466487795114517, 0.7266210317611694, 0.02961546555161476, 0.6833471059799194, 0.9999945163726807, -0.003179033286869526, 0.0002070162445306778, 0.000886550173163414, 0.08225440979003906, 0.011824607849121094, -0.003918051719665527, 9.87227725982666, 1.411744475364685, -0.4636366367340088, -43.716670989990234, 2.8467965126037598, 12.191448211669922, -0.902099609375, -0.48388671875, 0.080078125, 0, 
203, 2837987286, 0.06668718159198761, 0.7262059450149536, 0.026848474517464638, 0.6837082505226135, 0.9999937415122986, -0.003379230387508869, 0.00031409598886966705, 0.0009976327419281006, 0.08131098747253418, 0.01283794641494751, -0.0027562975883483887, 9.759346008300781, 1.5319856405258179, -0.3225048780441284, -46.46970748901367, 4.319311618804932, 13.719012260437012, -0.90283203125, -0.48583984375, 0.076171875, 0, 
204, 2837995619, 0.06856182217597961, 0.7257238030433655, 0.023678617551922798, 0.6841516494750977, 0.9999929666519165, -0.003562689758837223, 0.00034669414162635803, 0.0010951496660709381, 0.07952916622161865, 0.013117849826812744, -0.0018802285194396973, 9.54567813873291, 1.5645493268966675, -0.2167336791753769, -48.99257278442383, 4.767588138580322, 15.060026168823242, -0.90673828125, -0.484619140625, 0.0732421875, 0, 
205, 2838003952, 0.07071517407894135, 0.7252551317214966, 0.02054440602660179, 0.6845307946205139, 0.999992311000824, -0.003729601390659809, 0.0003291592001914978, 0.0011704768985509872, 0.07792657613754272, 0.012732326984405518, -0.0012632012367248535, 9.353395462036133, 1.517554759979248, -0.14283230900764465, -51.28788757324219, 4.526456832885742, 16.095897674560547, -0.90478515625, -0.482177734375, 0.0693359375, 0, 
206, 2838012285, 0.07276447862386703, 0.7247856855392456, 0.017055602744221687, 0.6849091649055481, 0.9999915957450867, -0.003905310295522213, 0.00026367418467998505, 0.0012035947293043137, 0.0764920711517334, 0.01066213846206665, -0.0017405152320861816, 9.181005477905273, 1.2692590951919556, -0.20146223902702332, -53.70417022705078, 3.6259357929229736, 16.551326751708984, -0.90966796875, -0.482177734375, 0.06494140625, 0, 
207, 2838020618, 0.07514938712120056, 0.7243589758872986, 0.013599283061921597, 0.685180127620697, 0.9999907612800598, -0.004112762399017811, 0.00018617510795593262, 0.00123617984354496, 0.0761713981628418, 0.00957643985748291, -0.000919640064239502, 9.142369270324707, 1.138363242149353, -0.10394793003797531, -56.55698776245117, 2.56020188331604, 16.999427795410156, -0.90869140625, -0.482177734375, 0.05859375, 0, 
208, 2838028951, 0.07750426232814789, 0.723943829536438, 0.009725823067128658, 0.6854225993156433, 0.9999895691871643, -0.004384136758744717, 0.00009360164403915405, 0.0012648776173591614, 0.07637220621109009, 0.008768856525421143, -0.0012082457542419434, 9.16637134552002, 1.0413380861282349, -0.13953913748264313, -60.2888298034668, 1.2871708869934082, 17.394071578979492, -0.91064453125, -0.484130859375, 0.0546875, 0, 
209, 2838037284, 0.08020557463169098, 0.7235312461853027, 0.005843295715749264, 0.685591459274292, 0.9999884366989136, -0.004631455056369305, 0.00005809031426906586, 0.0013151075690984726, 0.07739531993865967, 0.009154021739959717, -0.0009565949440002441, 9.289255142211914, 1.0868330001831055, -0.10918580740690231, -63.689876556396484, 0.7988342046737671, 18.084821701049805, -0.911865234375, -0.483154296875, 0.050537109375, 0, 
210, 2838045617, 0.08289285749197006, 0.7230448126792908, 0.0014944663271307945, 0.6858081221580505, 0.9999867677688599, -0.004955806769430637, 0.00008219294250011444, 0.0013796575367450714, 0.07816720008850098, 0.010843336582183838, 0.0006598830223083496, 9.382221221923828, 1.2879084348678589, 0.08638537675142288, -68.15026092529297, 1.1302841901779175, 18.97249412536621, -0.915283203125, -0.4814453125, 0.041748046875, 0, 
211, 2838053950, 0.08601062744855881, 0.722477912902832, -0.002949205692857504, 0.6860170364379883, 0.9999847412109375, -0.005330144427716732, 0.00013755448162555695, 0.001431761309504509, 0.07823729515075684, 0.012391448020935059, 0.002090156078338623, 9.390938758850098, 1.4722321033477783, 0.26002269983291626, -73.29804992675781, 1.8915951251983643, 19.68901824951172, -0.917236328125, -0.4833984375, 0.037841796875, 0, 
212, 2838062283, 0.08920901268720627, 0.7217856049537659, -0.007888204418122768, 0.6862983107566833, 0.9999824166297913, -0.005747315473854542, 0.00021918118000030518, 0.0014622770249843597, 0.07870322465896606, 0.013688743114471436, 0.0023056864738464355, 9.447098731994629, 1.627286672592163, 0.28817814588546753, -79.0348892211914, 3.0140960216522217, 20.108675003051758, -0.916748046875, -0.4833984375, 0.030517578125, 0, 
213, 2838070616, 0.09293264895677567, 0.7210085391998291, -0.012894068844616413, 0.6865449547767639, 0.9999799132347107, -0.006171242333948612, 0.00025135278701782227, 0.001423398032784462, 0.0738796591758728, 0.013688147068023682, 0.0006336569786071777, 8.868224143981934, 1.6295275688171387, 0.088380828499794, -84.86463165283203, 3.456510305404663, 19.57404136657715, -0.91943359375, -0.48193359375, 0.023193359375, 0, 
214, 2838078949, 0.09677102416753769, 0.7203027009963989, -0.018315713852643967, 0.6866324543952942, 0.9999776482582092, -0.006543644703924656, 0.0000496450811624527, 0.0013536959886550903, 0.07406884431838989, 0.012596726417541504, -0.0011327266693115234, 8.890664100646973, 1.5005037784576416, -0.12562613189220428, -89.98584747314453, 0.6827012896537781, 18.615541458129883, -0.9189453125, -0.48193359375, 0.017822265625, 0, 
215, 2838087282, 0.1010996401309967, 0.7196162343025208, -0.023721996694803238, 0.6865628957748413, 0.9999755620956421, -0.006877928040921688, -0.00007926952093839645, 0.0012657195329666138, 0.07377952337265015, 0.010865926742553711, -0.002729058265686035, 8.855518341064453, 1.294991135597229, -0.3192552328109741, -94.58284759521484, -1.0900866985321045, 17.405729293823242, -0.9208984375, -0.481689453125, 0.007080078125, 0, 
216, 2838095615, 0.10549444705247879, 0.7189764976501465, -0.029445337131619453, 0.6863501667976379, 0.999973714351654, -0.007151161320507526, -0.00023205485194921494, 0.0011585969477891922, 0.07496017217636108, 0.007858216762542725, -0.005709648132324219, 8.99651050567627, 0.9374891519546509, -0.6805415749549866, -98.34031677246094, -3.19113826751709, 15.932626724243164, -0.924560546875, -0.481201171875, -0.000244140625, 0, 
217, 2838103948, 0.11032175272703171, 0.718323290348053, -0.035104818642139435, 0.6860091090202332, 0.999971866607666, -0.00741401594132185, -0.0003173435106873512, 0.0010754875838756561, 0.07680779695510864, 0.006326258182525635, -0.007069289684295654, 9.217848777770996, 0.7555501461029053, -0.8456535339355469, -101.95507049560547, -4.364002227783203, 14.789745330810547, -0.927978515625, -0.478759765625, -0.007080078125, 0, 
218, 2838112281, 0.11515331268310547, 0.7177116274833679, -0.04105295613408089, 0.6855248212814331, 0.9999703168869019, -0.007624908350408077, -0.00045887473970651627, 0.000990724191069603, 0.07827478647232056, 0.005347073078155518, -0.00983506441116333, 9.39344310760498, 0.6413659453392029, -1.1796733140945435, -104.85526275634766, -6.310295581817627, 13.624114990234375, -0.927001953125, -0.478271484375, -0.014404296875, 0, 
219, 2838120614, 0.12031812965869904, 0.7170901894569397, -0.046884097158908844, 0.6849139332771301, 0.9999691247940063, -0.007781163789331913, -0.0005400301888585091, 0.0009291917085647583, 0.08173561096191406, 0.005768895149230957, -0.01155787706375122, 9.80855941772461, 0.6939729452133179, -1.386906385421753, -107.00406646728516, -7.426321983337402, 12.777946472167969, -0.92578125, -0.4853515625, -0.024169921875, 0, 
220, 2838128947, 0.12545721232891083, 0.7163986563682556, -0.05300307646393776, 0.68426913022995, 0.999967634677887, -0.007978907786309719, -0.0005282321944832802, 0.0008881669491529465, 0.08440572023391724, 0.007355630397796631, -0.011764943599700928, 10.129129409790039, 0.8849750757217407, -1.4101510047912598, -109.72344207763672, -7.264082908630371, 12.213791847229004, -0.9267578125, -0.4853515625, -0.03173828125, 0, 
221, 2838137280, 0.130928173661232, 0.7156099677085876, -0.05901048332452774, 0.6835775971412659, 0.9999663233757019, -0.00814641360193491, -0.000484672375023365, 0.0008364710956811905, 0.08667433261871338, 0.008562564849853516, -0.011643707752227783, 10.401519775390625, 1.0302221775054932, -1.3939640522003174, -112.0269546508789, -6.665064334869385, 11.502891540527344, -0.9287109375, -0.48486328125, -0.03955078125, 0, 
222, 2838145613, 0.13633325695991516, 0.7146763801574707, -0.06519880890846252, 0.6829351186752319, 0.9999656081199646, -0.008247493766248226, -0.00035715382546186447, 0.0007706433534622192, 0.08710920810699463, 0.010020434856414795, -0.012955963611602783, 10.453896522521973, 1.2072511911392212, -1.5485795736312866, -113.4170150756836, -4.91146993637085, 10.597652435302734, -0.926513671875, -0.48681640625, -0.04638671875, 0, 
223, 2838153946, 0.1419982612133026, 0.7136391401290894, -0.07126656174659729, 0.682258665561676, 0.999964714050293, -0.008360075764358044, -0.00029443297535181046, 0.000758931040763855, 0.08955210447311401, 0.006867110729217529, -0.013274908065795898, 10.74683952331543, 0.8292371034622192, -1.5893135070800781, -114.96524047851562, -4.048953533172607, 10.436591148376465, -0.929931640625, -0.487060546875, -0.06005859375, 0, 
224, 2838162279, 0.14748543500900269, 0.7124307155609131, -0.07745806127786636, 0.6816824674606323, 0.9999648928642273, -0.008341844193637371, -0.00011926237493753433, 0.000746091827750206, 0.08842545747756958, 0.006883561611175537, -0.014808714389801025, 10.611886024475098, 0.8329518437385559, -1.7714725732803345, -114.71453094482422, -1.6400601863861084, 10.260029792785645, -0.93017578125, -0.485107421875, -0.0673828125, 0, 
225, 2838170612, 0.15312208235263824, 0.711128830909729, -0.08341995626688004, 0.6810951828956604, 0.9999653100967407, -0.00829750020056963, -0.000029004178941249847, 0.0007303878664970398, 0.08831542730331421, 0.005802929401397705, -0.01615595817565918, 10.59872817993164, 0.7047101855278015, -1.9332985877990723, -114.10469055175781, -0.39885663986206055, 10.044071197509766, -0.93017578125, -0.487060546875, -0.07763671875, 0, 
226, 2838178945, 0.1585550457239151, 0.7096861600875854, -0.08952853083610535, 0.6805812120437622, 0.9999654293060303, -0.008276850916445255, 0.00009051896631717682, 0.0007530562579631805, 0.08814316987991333, 0.004820048809051514, -0.01602327823638916, 10.578214645385742, 0.586362898349762, -1.9171029329299927, -113.82073974609375, 1.2447893619537354, 10.355801582336426, -0.9326171875, -0.489501953125, -0.087890625, 0, 
227, 2838187278, 0.16409547626972198, 0.7081588506698608, -0.09540164470672607, 0.680060625076294, 0.9999659657478333, -0.008212043903768063, 0.00018755905330181122, 0.000756632536649704, 0.08743953704833984, 0.004786789417266846, -0.015700161457061768, 10.493953704833984, 0.581951379776001, -1.8773891925811768, -112.92951965332031, 2.579254388809204, 10.40497875213623, -0.932373046875, -0.489013671875, -0.09228515625, 0, 
228, 2838195611, 0.16942501068115234, 0.7065613865852356, -0.10143330693244934, 0.6795422434806824, 0.9999662637710571, -0.008176594041287899, 0.00019363313913345337, 0.0007828772068023682, 0.087024986743927, 0.005419790744781494, -0.015016555786132812, 10.444275856018066, 0.6569389700889587, -1.7947009801864624, -112.44200134277344, 2.66278338432312, 10.765887260437012, -0.929931640625, -0.4853515625, -0.106689453125, 0, 
229, 2838203944, 0.17489196360111237, 0.7049378752708435, -0.10739871859550476, 0.6789263486862183, 0.9999656677246094, -0.008240961469709873, 0.00017614662647247314, 0.0008576232939958572, 0.08662152290344238, 0.005935549736022949, -0.013445854187011719, 10.395895004272461, 0.7166563272476196, -1.6058521270751953, -113.32718658447266, 2.4223146438598633, 11.79377269744873, -0.9326171875, -0.48486328125, -0.114013671875, 0, 
230, 2838212277, 0.18017680943012238, 0.7032634019851685, -0.1136041209101677, 0.6782707571983337, 0.9999651908874512, -0.00829069223254919, 0.00011267699301242828, 0.0009208321571350098, 0.08643412590026855, 0.0065653324127197266, -0.013064980506896973, 10.373411178588867, 0.7912967801094055, -1.5601507425308228, -114.0110855102539, 1.549499750137329, 12.663003921508789, -0.93017578125, -0.48486328125, -0.127197265625, 0, 
231, 2838220610, 0.185576930642128, 0.7016201615333557, -0.11971614509820938, 0.6774647831916809, 0.9999649524688721, -0.008318587206304073, 0.000033328309655189514, 0.00096849724650383, 0.0859687328338623, 0.006506204605102539, -0.013171017169952393, 10.317469596862793, 0.7839124798774719, -1.573738694190979, -114.39470672607422, 0.4583209156990051, 13.31848430633545, -0.9345703125, -0.4833984375, -0.133056640625, 0, 
232, 2838228943, 0.19074097275733948, 0.6998730897903442, -0.12598147988319397, 0.6767011284828186, 0.999965250492096, -0.008272235281765461, 0.00005905143916606903, 0.0010348781943321228, 0.08546292781829834, 0.004690587520599365, -0.013923466205596924, 10.25664234161377, 0.5660863518714905, -1.6656121015548706, -113.75726318359375, 0.8120574355125427, 14.231328964233398, -0.937744140625, -0.484619140625, -0.143310546875, 0, 
233, 2838237276, 0.19595302641391754, 0.6981374621391296, -0.13209448754787445, 0.6758384704589844, 0.9999656677246094, -0.008213833905756474, 0.0000424310564994812, 0.001092599704861641, 0.08393120765686035, 0.003274261951446533, -0.014282643795013428, 10.072650909423828, 0.39599066972732544, -1.7103222608566284, -112.95413970947266, 0.5834989547729492, 15.025097846984863, -0.937744140625, -0.479248046875, -0.152099609375, 0, 
234, 2838245609, 0.20086562633514404, 0.6963808536529541, -0.13835015892982483, 0.6749563813209534, 0.9999664425849915, -0.0081070801243186, -0.00004948209971189499, 0.001177145168185234, 0.08382898569107056, 0.0023862719535827637, -0.013274312019348145, 10.060139656066895, 0.28743159770965576, -1.5911544561386108, -111.4860610961914, -0.6804625391960144, 16.18773651123047, -0.93798828125, -0.479248046875, -0.162353515625, 0, 
235, 2838253942, 0.2057749330997467, 0.6946657299995422, -0.14441409707069397, 0.6739740967750549, 0.9999673962593079, -0.0079827094450593, -0.0000741938129067421, 0.0012299101799726486, 0.08368515968322754, -0.0006021261215209961, -0.011159956455230713, 10.042431831359863, -0.07391499727964401, -1.3405746221542358, -109.77571868896484, -1.0202900171279907, 16.91333770751953, -0.93994140625, -0.475341796875, -0.171142578125, 0, 
236, 2838262275, 0.21040204167366028, 0.6928262114524841, -0.1505245864391327, 0.6731016039848328, 0.9999685287475586, -0.007825949229300022, 7.729977369308472e-7, 0.0012836884707212448, 0.08316022157669067, -0.002457559108734131, -0.010242581367492676, 9.97924518585205, -0.29810360074043274, -1.2314671277999878, -107.61995697021484, 0.010630017146468163, 17.652873992919922, -0.940673828125, -0.474609375, -0.1845703125, 0, 
237, 2838270608, 0.21505434811115265, 0.6910219192504883, -0.15635043382644653, 0.672156810760498, 0.9999698996543884, -0.007658031769096851, 0.00003396160900592804, 0.0012487750500440598, 0.08144712448120117, -0.002706468105316162, -0.009472668170928955, 9.773675918579102, -0.3282833397388458, -1.1389297246932983, -105.31078338623047, 0.46702906489372253, 17.172752380371094, -0.942626953125, -0.47412109375, -0.1884765625, 0, 
238, 2838278941, 0.21948261559009552, 0.6891537308692932, -0.1620832085609436, 0.6712849140167236, 0.9999716281890869, -0.007440260611474514, 0.00006922148168087006, 0.0011615436524152756, 0.08009940385818481, -0.004363536834716797, -0.008532226085662842, 9.611773490905762, -0.5271843075752258, -1.0271477699279785, -102.31597900390625, 0.951910674571991, 15.973160743713379, -0.943359375, -0.47021484375, -0.19970703125, 0, 
239, 2838287274, 0.2239801436662674, 0.6873441338539124, -0.16741999983787537, 0.6703444719314575, 0.9999734163284302, -0.007223895750939846, 0.00013053230941295624, 0.001003563404083252, 0.07931596040725708, -0.0027742385864257812, -0.008632004261016846, 9.518096923828125, -0.3349877893924713, -1.0370492935180664, -99.34053802490234, 1.7950353622436523, 13.8006591796875, -0.94384765625, -0.46533203125, -0.20556640625, 0, 
240, 2838295607, 0.22832684218883514, 0.6855241656303406, -0.1725364625453949, 0.6694437861442566, 0.9999754428863525, -0.006964686326682568, 0.00013940967619419098, 0.0007784944027662277, 0.07972538471221924, 0.00023370981216430664, -0.006377696990966797, 9.567556381225586, 0.025924449786543846, -0.7638296484947205, -95.77593231201172, 1.9171130657196045, 10.705583572387695, -0.9482421875, -0.4638671875, -0.2138671875, 0, 
241, 2838303940, 0.23278841376304626, 0.6838178038597107, -0.17720751464366913, 0.6684312224388123, 0.9999771118164062, -0.006742889992892742, 0.0001638699322938919, 0.000522887334227562, 0.08025997877120972, 0.00021326541900634766, -0.005635440349578857, 9.631707191467285, 0.025112653151154518, -0.6745296716690063, -92.72579956054688, 2.2534804344177246, 7.190559387207031, -0.945556640625, -0.46337890625, -0.2216796875, 0, 
242, 2838312273, 0.2371453046798706, 0.682027280330658, -0.18162348866462708, 0.6675431728363037, 0.9999788403511047, -0.006493869237601757, 0.0002907533198595047, 0.00029112957417964935, 0.08000701665878296, 0.0015117526054382324, -0.005114734172821045, 9.601456642150879, 0.18259982764720917, -0.6098192930221558, -89.30132293701172, 3.99833345413208, 4.003507614135742, -0.948486328125, -0.462158203125, -0.22607421875, 0, 
243, 2838320606, 0.24154672026634216, 0.6804054975509644, -0.18560004234313965, 0.6665255427360535, 0.999980628490448, -0.006219503469765186, 0.0002605896443128586, 0.00006293877959251404, 0.08158856630325317, 0.0024868249893188477, -0.0037750601768493652, 9.791154861450195, 0.3006225526332855, -0.4486144781112671, -85.52828216552734, 3.583531379699707, 0.8655105829238892, -0.94189453125, -0.458984375, -0.239013671875, 0, 
244, 2838328939, 0.24580223858356476, 0.6788522005081177, -0.1893240511417389, 0.6655055284500122, 0.9999823570251465, -0.005930778570473194, 0.0001890193670988083, -0.00018706824630498886, 0.0847424864768982, 0.003043532371520996, -0.0005239248275756836, 10.169447898864746, 0.3675064146518707, -0.0587792694568634, -81.55780029296875, 2.5993223190307617, -2.57249116897583, -0.9482421875, -0.459228515625, -0.246337890625, 0, 
245, 2838337272, 0.250142902135849, 0.6773379445075989, -0.19249914586544037, 0.6645194292068481, 0.999984085559845, -0.005612791515886784, 0.0003974083811044693, -0.0004599364474415779, 0.0857691764831543, 0.00046890974044799805, -0.0001690387725830078, 10.292693138122559, 0.061108894646167755, -0.015872104093432426, -77.18492889404297, 5.465005397796631, -6.3248677253723145, -0.94482421875, -0.459228515625, -0.250244140625, 0, 
246, 2838345605, 0.2543930113315582, 0.6757898926734924, -0.19526228308677673, 0.6636754274368286, 0.9999857544898987, -0.005253271199762821, 0.0005418583750724792, -0.0007917722687125206, 0.08340150117874146, -0.00008529424667358398, 0.0005045533180236816, 10.008553504943848, -0.0026378431357443333, 0.06593242287635803, -72.24089050292969, 7.451419830322266, -10.888136863708496, -0.94384765625, -0.461181640625, -0.255126953125, 0, 
247, 2838353938, 0.25856462121009827, 0.6745253801345825, -0.19742755591869354, 0.6627083420753479, 0.9999879598617554, -0.004761333577334881, 0.0004650019109249115, -0.0010829688981175423, 0.08222007751464844, -0.0009688735008239746, 0.0038902759552001953, 9.866707801818848, -0.10781632363796234, 0.4708980917930603, -65.47591400146484, 6.394516468048096, -14.892546653747559, -0.94384765625, -0.463623046875, -0.260498046875, 0, 
248, 2838362271, 0.26242876052856445, 0.6734009385108948, -0.19920864701271057, 0.6617995500564575, 0.9999900460243225, -0.00424568634480238, 0.00039270520210266113, -0.0012978790327906609, 0.08174318075180054, -0.0001366138458251953, 0.006152629852294922, 9.80929946899414, -0.006796360947191715, 0.7421438694000244, -58.38491439819336, 5.400318145751953, -17.84789276123047, -0.942138671875, -0.460693359375, -0.269287109375, 0, 
249, 2838370604, 0.2661770284175873, 0.6724660396575928, -0.20054003596305847, 0.6608503460884094, 0.9999915361404419, -0.0038345353677868843, 0.00038860365748405457, -0.0014360053464770317, 0.08045125007629395, 0.0017727017402648926, 0.007173001766204834, 9.653888702392578, 0.22329649329185486, 0.8653786182403564, -52.73090744018555, 5.3439130783081055, -19.747339248657227, -0.938232421875, -0.462158203125, -0.274658203125, 0, 
250, 2838378937, 0.2696435749530792, 0.6715376973152161, -0.20166122913360596, 0.6600472927093506, 0.9999927878379822, -0.0034688683226704597, 0.0004286840558052063, -0.0014895377680659294, 0.07853764295578003, 0.004518449306488037, 0.008566319942474365, 9.423639297485352, 0.552692711353302, 1.0339276790618896, -47.70238494873047, 5.895078659057617, -20.483482360839844, -0.937255859375, -0.462158203125, -0.276611328125, 0, 
251, 2838387270, 0.2729673981666565, 0.6707144379615784, -0.2025182843208313, 0.6592552661895752, 0.9999938011169434, -0.003174210898578167, 0.0004541371017694473, -0.0014644181355834007, 0.07631361484527588, 0.008753538131713867, 0.00809401273727417, 9.156013488769531, 1.060786485671997, 0.9788251519203186, -43.65037155151367, 6.245096206665039, -20.13804054260254, -0.93505859375, -0.465576171875, -0.286865234375, 0, 
252, 2838395603, 0.2760901153087616, 0.6698174476623535, -0.20337997376918793, 0.6586014628410339, 0.9999942779541016, -0.0030284011736512184, 0.0005088616162538528, -0.0014022765681147575, 0.074088454246521, 0.013087749481201172, 0.008201360702514648, 8.888262748718262, 1.5800590515136719, 0.9934827089309692, -41.6452522277832, 6.997642993927002, -19.283496856689453, -0.9345703125, -0.467529296875, -0.288818359375, 0, 
253, 2838403936, 0.2791496217250824, 0.6690210103988647, -0.20419736206531525, 0.6578677296638489, 0.999994695186615, -0.0029512541368603706, 0.0004230570048093796, -0.0013094479218125343, 0.07178288698196411, 0.016588866710662842, 0.007689952850341797, 8.611286163330078, 1.999294400215149, 0.9323641657829285, -40.584354400634766, 5.817694664001465, -18.006954193115234, -0.9326171875, -0.468017578125, -0.293212890625, 0, 
254, 2838412269, 0.2820570170879364, 0.6682292222976685, -0.2052117884159088, 0.657116174697876, 0.9999948143959045, -0.002975533716380596, 0.00028767436742782593, -0.0012065349146723747, 0.07038575410842896, 0.018748879432678223, 0.007590651512145996, 8.443644523620605, 2.257432460784912, 0.920054018497467, -40.91823959350586, 3.9559717178344727, -16.591739654541016, -0.93359375, -0.470947265625, -0.296630859375, 0, 
255, 2838420602, 0.285015344619751, 0.6675038933753967, -0.20638173818588257, 0.6562099456787109, 0.9999945163726807, -0.0031303362920880318, 0.00013199448585510254, -0.001063450239598751, 0.06996327638626099, 0.02113926410675049, 0.0061220526695251465, 8.393134117126465, 2.543426036834717, 0.7437236309051514, -43.04701232910156, 1.8151302337646484, -14.624102592468262, -0.93310546875, -0.470458984375, -0.299560546875, 0, 
256, 2838428935, 0.28791168332099915, 0.6667810678482056, -0.20792925357818604, 0.6551911234855652, 0.9999939203262329, -0.003353710286319256, -0.00008954573422670364, -0.0009330185130238533, 0.0697595477104187, 0.02326357364654541, 0.005569338798522949, 8.368932723999023, 2.7973010540008545, 0.6769692301750183, -46.1187629699707, -1.2313940525054932, -12.830464363098145, -0.927734375, -0.474365234375, -0.3037109375, 0, 
257, 2838437268, 0.2909812331199646, 0.6661575436592102, -0.2097219079732895, 0.6538968682289124, 0.999992847442627, -0.00366376806050539, -0.0003567589446902275, -0.000840737484395504, 0.07118231058120728, 0.0251314640045166, 0.0035862326622009277, 8.539837837219238, 3.021486282348633, 0.4383675754070282, -50.382568359375, -4.905996322631836, -11.561461448669434, -0.92626953125, -0.471923828125, -0.30810546875, 0, 
258, 2838445601, 0.29411888122558594, 0.6655685305595398, -0.2119506299495697, 0.6523725986480713, 0.9999913573265076, -0.004027261398732662, -0.0006610946729779243, -0.0008108029142022133, 0.07211297750473022, 0.026521921157836914, 0.0012671351432800293, 8.651423454284668, 3.189152240753174, 0.15916907787322998, -55.38119888305664, -9.091094970703125, -11.149821281433105, -0.925537109375, -0.472900390625, -0.31103515625, 0, 
259, 2838453934, 0.2975232005119324, 0.6651186943054199, -0.21443569660186768, 0.6504726409912109, 0.9999894499778748, -0.0044156285002827644, -0.001010623760521412, -0.0007955124601721764, 0.07487314939498901, 0.027521133422851562, -0.00014734268188476562, 8.982490539550781, 3.3098881244659424, -0.012165379710495472, -60.721893310546875, -13.89767837524414, -10.939557075500488, -0.927001953125, -0.472900390625, -0.31298828125, 0, 
260, 2838462267, 0.300992876291275, 0.6647128462791443, -0.21736891567707062, 0.6483142971992493, 0.9999873042106628, -0.004787835292518139, -0.0013403864577412605, -0.0007845340296626091, 0.07665783166885376, 0.02887701988220215, -0.002580106258392334, 9.196173667907715, 3.474071502685547, -0.3053493797779083, -65.84037780761719, -18.43245506286621, -10.788595199584961, -0.924560546875, -0.474853515625, -0.31787109375, 0, 
261, 2838470600, 0.3047104775905609, 0.6644349694252014, -0.22051405906677246, 0.6457951068878174, 0.9999851584434509, -0.005134823732078075, -0.0016648424789309502, -0.0007633315399289131, 0.08037769794464111, 0.02982693910598755, -0.003836691379547119, 9.642210960388184, 3.5890955924987793, -0.45808255672454834, -70.61206817626953, -22.89425277709961, -10.49703311920166, -0.923095703125, -0.476318359375, -0.32080078125, 0, 
262, 2838478933, 0.3084874749183655, 0.6641517877578735, -0.22403037548065186, 0.6430772542953491, 0.999983012676239, -0.005454572848975658, -0.001901254989206791, -0.0007913848385214806, 0.08402067422866821, 0.028700649738311768, -0.0033287405967712402, 10.079394340515137, 3.4543771743774414, -0.39982762932777405, -75.00918579101562, -26.145326614379883, -10.882819175720215, -0.924560546875, -0.474853515625, -0.32373046875, 0, 
263, 2838487266, 0.31257346272468567, 0.6639248132705688, -0.22755005955696106, 0.6400958299636841, 0.9999812245368958, -0.0057079968973994255, -0.0020347433164715767, -0.0008841147646307945, 0.08767557144165039, 0.02793896198272705, -0.003262937068939209, 10.517723083496094, 3.364346504211426, -0.3938136100769043, -78.49421691894531, -27.98101806640625, -12.158011436462402, -0.925537109375, -0.469970703125, -0.3251953125, 0, 
264, 2838495599, 0.31671014428138733, 0.663631796836853, -0.23122602701187134, 0.6370416283607483, 0.9999800324440002, -0.005874599330127239, -0.0020874934270977974, -0.0010176943615078926, 0.09160840511322021, 0.023767471313476562, -0.004838109016418457, 10.989323616027832, 2.8668205738067627, -0.5867583155632019, -80.7853012084961, -28.706432342529297, -13.994954109191895, -0.924072265625, -0.473388671875, -0.330078125, 0, 
265, 2838503932, 0.3211330473423004, 0.6632963418960571, -0.23468251526355743, 0.6339051723480225, 0.9999796152114868, -0.00596086960285902, -0.00196895282715559, -0.001147090457379818, 0.09357845783233643, 0.021876275539398193, -0.004382967948913574, 11.225807189941406, 2.641280174255371, -0.5324028730392456, -81.97167205810547, -27.076309204101562, -15.77436351776123, -0.92333984375, -0.471923828125, -0.3330078125, 0, 
266, 2838512265, 0.3255119025707245, 0.6628007888793945, -0.2380814254283905, 0.630915641784668, 0.9999801516532898, -0.00590840820223093, -0.001771855168044567, -0.001286807470023632, 0.09456080198287964, 0.02000361680984497, -0.00454181432723999, 11.343684196472168, 2.4183592796325684, -0.5509243607521057, -81.2502212524414, -24.365894317626953, -17.695697784423828, -0.92236328125, -0.471435546875, -0.3369140625, 0, 
267, 2838520598, 0.3300407826900482, 0.6623228192329407, -0.24108897149562836, 0.6279155611991882, 0.9999811053276062, -0.005760903470218182, -0.0016144374385476112, -0.0014243992045521736, 0.09403246641159058, 0.017799854278564453, -0.0033496618270874023, 11.280644416809082, 2.1544649600982666, -0.4078496992588043, -79.2217788696289, -22.201135635375977, -19.587800979614258, -0.91796875, -0.472900390625, -0.341796875, 0, 
268, 2838528931, 0.3343890309333801, 0.6617065668106079, -0.2439667135477066, 0.6251471638679504, 0.9999825358390808, -0.005546220578253269, -0.001386892981827259, -0.0015107346698641777, 0.09374767541885376, 0.017314016819000244, -0.005057156085968018, 11.246179580688477, 2.098128080368042, -0.6109216809272766, -76.26951599121094, -19.072025299072266, -20.775047302246094, -0.92041015625, -0.472412109375, -0.34765625, 0, 
269, 2838537264, 0.3388404846191406, 0.6611053943634033, -0.2465217411518097, 0.6223776936531067, 0.9999833703041077, -0.0054109180346131325, -0.001250765286386013, -0.0015648314729332924, 0.09263783693313599, 0.012167513370513916, -0.003317892551422119, 11.114190101623535, 1.4797190427780151, -0.40413057804107666, -74.40885162353516, -17.200040817260742, -21.518957138061523, -0.919921875, -0.472900390625, -0.3486328125, 0, 
270, 2838545597, 0.34305697679519653, 0.6603691577911377, -0.24890661239624023, 0.6198953986167908, 0.9999850988388062, -0.005121729336678982, -0.0009898552671074867, -0.0016277125105261803, 0.09265953302383423, 0.010140657424926758, -0.007330477237701416, 11.116722106933594, 1.2395395040512085, -0.8844273090362549, -70.43199920654297, -13.612098693847656, -22.3836612701416, -0.918701171875, -0.474365234375, -0.35498046875, 0, 
271, 2838553930, 0.3473326861858368, 0.659582257270813, -0.25075456500053406, 0.6176030039787292, 0.9999868273735046, -0.004801209084689617, -0.0006196768954396248, -0.001715182326734066, 0.09107661247253418, 0.009076714515686035, -0.0066751837730407715, 10.927251815795898, 1.1118407249450684, -0.8025599122047424, -66.02429962158203, -8.521547317504883, -23.58650016784668, -0.917724609375, -0.474853515625, -0.35791015625, 0, 
272, 2838562263, 0.3512878715991974, 0.6586888432502747, -0.2522972524166107, 0.6156882047653198, 0.9999889135360718, -0.004340400919318199, -0.00029313936829566956, -0.0017861258238554, 0.08999067544937134, 0.0055193305015563965, -0.0053615570068359375, 10.797928810119629, 0.684425413608551, -0.6436715126037598, -59.68741226196289, -4.031132221221924, -24.562070846557617, -0.912841796875, -0.474853515625, -0.360595703125, 0, 
273, 2838570596, 0.35522860288619995, 0.6577799320220947, -0.25324317812919617, 0.6140083074569702, 0.9999905824661255, -0.003913890570402145, 0.00009642448276281357, -0.0018656831234693527, 0.08786535263061523, 0.005222976207733154, -0.005748569965362549, 10.543147087097168, 0.6491455435752869, -0.686357855796814, -53.82217788696289, 1.325989007949829, -25.656091690063477, -0.915283203125, -0.476806640625, -0.361572265625, 0, 
274, 2838578929, 0.35876864194869995, 0.6568775773048401, -0.253878116607666, 0.6126523017883301, 0.9999924302101135, -0.003370855003595352, 0.0002955133095383644, -0.0019284691661596298, 0.08523207902908325, 0.0035947561264038086, -0.0030686259269714355, 10.227519989013672, 0.45234915614128113, -0.3637492060661316, -46.35456085205078, 4.063773155212402, -26.519485473632812, -0.908935546875, -0.476806640625, -0.368896484375, 0, 
275, 2838587262, 0.36215099692344666, 0.6560962200164795, -0.2540134787559509, 0.6114423274993896, 0.9999938607215881, -0.0028862226754426956, 0.0004801647737622261, -0.0019329171627759933, 0.08374840021133423, 0.005404412746429443, -0.003931224346160889, 10.049168586730957, 0.6693552732467651, -0.4650418162345886, -39.69007873535156, 6.603017330169678, -26.58063507080078, -0.906982421875, -0.483642578125, -0.372802734375, 0, 
276, 2838595595, 0.3650800287723541, 0.6553894281387329, -0.2539758086204529, 0.6104733943939209, 0.9999951720237732, -0.002389269880950451, 0.0005169641226530075, -0.0019058538600802422, 0.08109515905380249, 0.006017029285430908, -0.000018358230590820312, 9.730420112609863, 0.7405959963798523, 0.004559447057545185, -32.8561897277832, 7.109062671661377, -26.208465576171875, -0.902099609375, -0.483642578125, -0.377685546875, 0, 
277, 2838603928, 0.367812842130661, 0.6548470258712769, -0.25355467200279236, 0.6095892786979675, 0.9999961853027344, -0.0019518174231052399, 0.0005888771265745163, -0.0018562469631433487, 0.0793645977973938, 0.008558034896850586, -0.0011129975318908691, 9.522292137145996, 1.0449333190917969, -0.12594319880008698, -26.84052276611328, 8.097975730895996, -25.526281356811523, -0.90234375, -0.486572265625, -0.382080078125, 0, 
278, 2838612261, 0.37013959884643555, 0.654334545135498, -0.25306856632232666, 0.6089329123497009, 0.9999970197677612, -0.0015707463026046753, 0.000614766962826252, -0.0017664320766925812, 0.07764732837677002, 0.0106697678565979, 0.00038045644760131836, 9.315752983093262, 1.2967921495437622, 0.0533977635204792, -21.600196838378906, 8.453998565673828, -24.291179656982422, -0.8984375, -0.487548828125, -0.384521484375, 0, 
279, 2838620594, 0.372281551361084, 0.6539367437362671, -0.25234168767929077, 0.6083559393882751, 0.9999976754188538, -0.0012481054291129112, 0.0006660595536231995, -0.001629638485610485, 0.07550704479217529, 0.012826323509216309, 0.000026524066925048828, 9.05869197845459, 1.5539530515670776, 0.011131093837320805, -17.16338348388672, 9.159350395202637, -22.41005516052246, -0.89599609375, -0.489501953125, -0.384521484375, 0, 
280, 2838628927, 0.37407225370407104, 0.65353924036026, -0.25168508291244507, 0.6079565286636353, 0.9999982118606567, -0.0010088374838232994, 0.0006407834589481354, -0.0014849724248051643, 0.07347005605697632, 0.014755308628082275, 0.00021004676818847656, 8.814105033874512, 1.7837797403335571, 0.032651305198669434, -13.87307357788086, 8.811761856079102, -20.420663833618164, -0.89208984375, -0.492431640625, -0.385986328125, 0, 
