PacketCounter,SampleTimeFine,Quat_W,Quat_X,Quat_Y,Quat_Z,dq_W,dq_X,dq_Y,dq_Z,dv[1],dv[2],dv[3],Acc_X,Acc_Y,Acc_Z,Gyr_X,Gyr_Y,Gyr_Z,Mag_X,Mag_Y,Mag_Z,Status,
0, 203663281, 0.14767105877399445, 0.6384837627410889, -0.20314829051494598, 0.7275035381317139, 0, 0, 0, 0, 0, 0, 0, 0, 0, 0, 0, 0, 0, -1.072021484375, -0.183349609375, -0.26123046875, 0, 
1, 203671614, 0.14825809001922607, 0.6382734179496765, -0.2038058340549469, 0.7273849248886108, 0.9999995827674866, -0.0009083729237318039, 0.00009946618229150772, 0.00001791771501302719, 0.08036279678344727, -0.009056329727172852, 0.008292675018310547, 9.643802642822266, -1.0878785848617554, 0.9951324462890625, -12.49152660369873, 1.3678131103515625, 0.24639616906642914, -1.070556640625, -0.182861328125, -0.261962890625, 0, 
2, 203679947, 0.1488901823759079, 0.638038158416748, -0.20453280210494995, 0.7272582054138184, 0.9999995231628418, -0.000992901623249054, 0.00011122692376375198, 0.00003342609852552414, 0.0803912878036499, -0.009257376194000244, 0.008291065692901611, 9.64719009399414, -1.1122581958770752, 0.9949367642402649, -13.653926849365234, 1.5295414924621582, 0.4596603214740753, -1.071533203125, -0.184326171875, -0.26123046875, 0, 
3, 203688280, 0.14986804127693176, 0.6377100348472595, -0.2057831734418869, 0.7269930243492126, 0.9999994039535522, -0.00107647106051445, 0.0001082858070731163, 0.000027540139853954315, 0.08025175333023071, -0.009367823600769043, 0.007938683032989502, 9.630462646484375, -1.1254645586013794, 0.9525135159492493, -14.803135871887207, 1.489096760749817, 0.37871935963630676, -1.070556640625, -0.187255859375, -0.26171875, 0, 
4, 203696613, 0.15059930086135864, 0.6374409198760986, -0.2066260427236557, 0.7268388867378235, 0.9999993443489075, -0.001151103526353836, 0.00012159626930952072, 0.00003806035965681076, 0.0802190899848938, -0.009555339813232422, 0.007766246795654297, 9.626518249511719, -1.1481255292892456, 0.9318369626998901, -15.829446792602539, 1.672135829925537, 0.5233885645866394, -1.072509765625, -0.18408203125, -0.2626953125, 0, 
5, 203704946, 0.150939479470253, 0.6371590495109558, -0.208091601729393, 0.7265974879264832, 0.9999992251396179, -0.0012280028313398361, 0.00011343229562044144, 0.00003116484731435776, 0.08006399869918823, -0.009836733341217041, 0.007607638835906982, 9.607924461364746, -1.1818739175796509, 0.912593424320221, -16.886930465698242, 1.5598689317703247, 0.4285646975040436, -1.069580078125, -0.182861328125, -0.263427734375, 0, 
6, 203713279, 0.1517544388771057, 0.6368619203567505, -0.20903237164020538, 0.726418137550354, 0.9999991655349731, -0.001284884288907051, 0.00012910086661577225, 0.00004197005182504654, 0.07977169752120972, -0.010210573673248291, 0.007565319538116455, 9.572816848754883, -1.226885437965393, 0.9075353145599365, -17.66914176940918, 1.7753360271453857, 0.5771529078483582, -1.075927734375, -0.1845703125, -0.265625, 0, 
7, 203721612, 0.1520230919122696, 0.6366918683052063, -0.21092765033245087, 0.7259628772735596, 0.9999991059303284, -0.0013301931321620941, 0.00013109762221574783, 0.00003336649388074875, 0.0798296332359314, -0.010739445686340332, 0.007504940032958984, 9.579777717590332, -1.2903026342391968, 0.9001697301864624, -18.292203903198242, 1.802794337272644, 0.4588406980037689, -1.073486328125, -0.18310546875, -0.26220703125, 0, 
8, 203729945, 0.15291211009025574, 0.6363709568977356, -0.2119133621454239, 0.7257704138755798, 0.9999990463256836, -0.0013709664344787598, 0.00014817249029874802, 0.00002062227576971054, 0.07993364334106445, -0.011039137840270996, 0.007476627826690674, 9.592259407043457, -1.3261810541152954, 0.8968344330787659, -18.8528995513916, 2.037600040435791, 0.28358808159828186, -1.072021484375, -0.18115234375, -0.264892578125, 0, 
9, 203738278, 0.1527983397245407, 0.6362040638923645, -0.2138320505619049, 0.7253778576850891, 0.9999989867210388, -0.0014107991009950638, 0.00015123654156923294, 0.000014769844710826874, 0.07994699478149414, -0.011464178562164307, 0.007002830505371094, 9.59387493133545, -1.3770921230316162, 0.8398795127868652, -19.400663375854492, 2.07973575592041, 0.20310813188552856, -1.074951171875, -0.18603515625, -0.267333984375, 0, 
10, 203746611, 0.1537443995475769, 0.635857343673706, -0.21485647559165955, 0.7251794338226318, 0.999998927116394, -0.0014403779059648514, 0.00017111282795667648, 0.00000939052551984787, 0.07989883422851562, -0.011986017227172852, 0.0068441033363342285, 9.588088035583496, -1.4396593570709229, 0.8208909034729004, -19.807418823242188, 2.3530654907226562, 0.12913420796394348, -1.07373046875, -0.18359375, -0.269287109375, 0, 
11, 203754944, 0.15358659625053406, 0.6356372833251953, -0.21691802144050598, 0.724791944026947, 0.9999989867210388, -0.0014211088418960571, 0.00017975177615880966, 0.000021823681890964508, 0.07969802618026733, -0.012203216552734375, 0.006754279136657715, 9.563968658447266, -1.4658076763153076, 0.8101826310157776, -19.542434692382812, 2.4718637466430664, 0.30010926723480225, -1.072265625, -0.18359375, -0.272705078125, 0, 
12, 203763277, 0.15448957681655884, 0.635281503200531, -0.21793349087238312, 0.7246073484420776, 0.9999989867210388, -0.0014046002179384232, 0.00018041487783193588, 0.00003986340016126633, 0.07955735921859741, -0.012304902076721191, 0.006836831569671631, 9.547059059143066, -1.4781720638275146, 0.820101797580719, -19.315420150756836, 2.480983018875122, 0.5481833219528198, -1.072265625, -0.18359375, -0.271728515625, 0, 
13, 203771610, 0.15447916090488434, 0.6349942088127136, -0.2202799767255783, 0.7241514921188354, 0.9999989867210388, -0.0013942830264568329, 0.00017924699932336807, 0.00005214568227529526, 0.07961517572402954, -0.012600719928741455, 0.006699740886688232, 9.55398178100586, -1.5137561559677124, 0.8036069869995117, -19.173542022705078, 2.4649226665496826, 0.7170834541320801, -1.0703125, -0.181640625, -0.273681640625, 0, 
14, 203779943, 0.15536051988601685, 0.6346383690834045, -0.2212872952222824, 0.7239677309989929, 0.9999990463256836, -0.001384541392326355, 0.00017961766570806503, 0.000051456503570079803, 0.07968699932098389, -0.013254106044769287, 0.006700456142425537, 9.56259822845459, -1.5921494960784912, 0.803605318069458, -19.03957748413086, 2.470019578933716, 0.7076061964035034, -1.07080078125, -0.18212890625, -0.274658203125, 0, 
15, 203788276, 0.15530546009540558, 0.6343538761138916, -0.22347699105739594, 0.7235561609268188, 0.9999990463256836, -0.001349031925201416, 0.0001783343032002449, 0.000043285079300403595, 0.08008074760437012, -0.01380389928817749, 0.006398200988769531, 9.609867095947266, -1.657981276512146, 0.7672949433326721, -18.551267623901367, 2.45237135887146, 0.5952365398406982, -1.0693359375, -0.18115234375, -0.276611328125, 0, 
16, 203796609, 0.15613652765750885, 0.6340122818946838, -0.22440339624881744, 0.7233899831771851, 0.9999991655349731, -0.001287762075662613, 0.00018357206135988235, 0.000036747194826602936, 0.08045989274978638, -0.014300763607025146, 0.006004512310028076, 9.655377388000488, -1.7174468040466309, 0.7201308608055115, -17.70871353149414, 2.5243985652923584, 0.5053305625915527, -1.07080078125, -0.18212890625, -0.272705078125, 0, 
17, 203804942, 0.1560235321521759, 0.6337073445320129, -0.2264825850725174, 0.7230334877967834, 0.9999992251396179, -0.0012091565877199173, 0.0001966608688235283, 0.000015067867934703827, 0.08108454942703247, -0.014590322971343994, 0.005499482154846191, 9.730380058288574, -1.7518463134765625, 0.6597617268562317, -16.627763748168945, 2.704389810562134, 0.2072063833475113, -1.072265625, -0.1806640625, -0.276611328125, 0, 
18, 203813275, 0.15680217742919922, 0.6333690285682678, -0.22727526724338531, 0.7229127287864685, 0.9999993443489075, -0.0011467598378658295, 0.00022067036479711533, -0.0000030212104320526123, 0.08120375871658325, -0.014457464218139648, 0.005580246448516846, 9.744696617126465, -1.7357072830200195, 0.6698176264762878, -15.769713401794434, 3.034557342529297, -0.0415462963283062, -1.0712890625, -0.1787109375, -0.281005859375, 0, 
19, 203821608, 0.15647383034229279, 0.6331368088722229, -0.22913086414337158, 0.7226014733314514, 0.9999994039535522, -0.0010900087654590607, 0.0002470584586262703, -0.000005649402737617493, 0.0810927152633667, -0.014107048511505127, 0.005967080593109131, 9.731345176696777, -1.6936408281326294, 0.7166380286216736, -14.989299774169922, 3.3974342346191406, -0.07768799364566803, -1.07080078125, -0.185546875, -0.278076171875, 0, 
20, 203829941, 0.15718162059783936, 0.63278728723526, -0.22984196245670319, 0.7225281596183777, 0.9999994039535522, -0.0010334290564060211, 0.0002571800723671913, 0.000007319264113903046, 0.08067899942398071, -0.013792932033538818, 0.0058838725090026855, 9.681672096252441, -1.656017780303955, 0.7068709135055542, -14.2112398147583, 3.536621570587158, 0.10065114498138428, -1.07177734375, -0.1796875, -0.278564453125, 0, 
21, 203838274, 0.15665927529335022, 0.6326397061347961, -0.2314160019159317, 0.7222683429718018, 0.9999995231628418, -0.0009759552776813507, 0.00024609360843896866, 0.000032383017241954803, 0.08015435934066772, -0.013584256172180176, 0.00631791353225708, 9.618668556213379, -1.631226658821106, 0.758955180644989, -13.42088794708252, 3.3841662406921387, 0.4453163743019104, -1.0712890625, -0.1826171875, -0.279541015625, 0, 
22, 203846607, 0.15726062655448914, 0.6323233246803284, -0.23208600282669067, 0.7221996784210205, 0.9999995231628418, -0.0009297989308834076, 0.00021940190345048904, 0.00005183834582567215, 0.08002805709838867, -0.013512849807739258, 0.006380736827850342, 9.603495597839355, -1.6228282451629639, 0.7663235068321228, -12.786165237426758, 3.017113447189331, 0.7128569483757019, -1.07275390625, -0.17822265625, -0.279541015625, 0, 
23, 203854940, 0.15679660439491272, 0.6321974992752075, -0.23353922367095947, 0.7219423651695251, 0.9999995827674866, -0.0008828621357679367, 0.00019136164337396622, 0.00008400622755289078, 0.07996213436126709, -0.013386666774749756, 0.006505727767944336, 9.595551490783691, -1.6079803705215454, 0.7811417579650879, -12.140713691711426, 2.6315174102783203, 1.1552150249481201, -1.07373046875, -0.18017578125, -0.283935546875, 0, 
24, 203863273, 0.15727753937244415, 0.6319249272346497, -0.2341858446598053, 0.7218669056892395, 0.9999996423721313, -0.0008311513811349869, 0.0001601567491889, 0.00011321995407342911, 0.07992559671401978, -0.013616859912872314, 0.006622374057769775, 9.591148376464844, -1.6358015537261963, 0.7948909401893616, -11.429609298706055, 2.202401876449585, 1.5569484233856201, -1.072265625, -0.177734375, -0.284423828125, 0, 
25, 203871606, 0.15693502128124237, 0.6317746043205261, -0.23557738959789276, 0.7216202020645142, 0.9999997019767761, -0.0007801353931427002, 0.00014439132064580917, 0.00013967137783765793, 0.07969564199447632, -0.013947665691375732, 0.006069660186767578, 9.563516616821289, -1.6757103204727173, 0.7284635901451111, -10.72806167602539, 1.985602617263794, 1.9206961393356323, -1.0693359375, -0.18017578125, -0.284912109375, 0, 
26, 203879939, 0.15731696784496307, 0.6315299868583679, -0.23616622388362885, 0.7215588092803955, 0.9999997019767761, -0.0007191170006990433, 0.0001354878768324852, 0.0001440746709704399, 0.0796893835067749, -0.014223992824554443, 0.00607067346572876, 9.56275749206543, -1.7088831663131714, 0.7285786867141724, -9.888965606689453, 1.8631668090820312, 1.981248378753662, -1.0712890625, -0.17822265625, -0.285888671875, 0, 
27, 203888272, 0.15695825219154358, 0.631400465965271, -0.23734615743160248, 0.7213630080223083, 0.9999997615814209, -0.0006436947733163834, 0.00013118889182806015, 0.00013044755905866623, 0.07927018404006958, -0.01440054178237915, 0.006196200847625732, 9.512479782104492, -1.7298476696014404, 0.7437084913253784, -8.851794242858887, 1.8040491342544556, 1.7938545942306519, -1.0712890625, -0.18359375, -0.285888671875, 0, 
28, 203896605, 0.15727387368679047, 0.6311967968940735, -0.23780792951583862, 0.721320390701294, 0.9999998211860657, -0.0005744211375713348, 0.00012262817472219467, 0.00010532792657613754, 0.07891213893890381, -0.014679908752441406, 0.006300866603851318, 9.469554901123047, -1.7630972862243652, 0.7562838196754456, -7.899173736572266, 1.6863256692886353, 1.4484208822250366, -1.0712890625, -0.18115234375, -0.286865234375, 0, 
29, 203904938, 0.1567850261926651, 0.6311482787132263, -0.23869629204273224, 0.7211757898330688, 0.9999998807907104, -0.0005075540393590927, 0.00010254140943288803, 0.00008267443627119064, 0.07875561714172363, -0.014847338199615479, 0.00616985559463501, 9.450833320617676, -1.7828805446624756, 0.7404753565788269, -6.979648113250732, 1.4101020097732544, 1.136900544166565, -1.071533203125, -0.177734375, -0.288330078125, 0, 
30, 203913271, 0.15703904628753662, 0.6310025453567505, -0.23904255032539368, 0.7211334109306335, 0.9999998807907104, -0.0004429612308740616, 0.00008485931903123856, 0.0000631893053650856, 0.07838809490203857, -0.014998972415924072, 0.005882978439331055, 9.40677261352539, -1.8008610010147095, 0.7059862613677979, -6.091398239135742, 1.1669461727142334, 0.8689501881599426, -1.0703125, -0.181640625, -0.285888671875, 0, 
31, 203921604, 0.15668922662734985, 0.6309319138526917, -0.2399206906557083, 0.7209795117378235, 0.9999999403953552, -0.00037132762372493744, 0.00006881821900606155, 0.000044391490519046783, 0.0783851146697998, -0.014850795269012451, 0.00595545768737793, 9.406457901000977, -1.7828704118728638, 0.7146685719490051, -5.106325626373291, 0.9463564157485962, 0.6104512810707092, -1.07275390625, -0.1787109375, -0.284912109375, 0, 
32, 203929937, 0.1568659245967865, 0.6308401226997375, -0.24015621840953827, 0.720943033695221, 0.9999999403953552, -0.0003045257180929184, 0.00004880782216787338, 0.000037115998566150665, 0.07856738567352295, -0.01473468542098999, 0.005874216556549072, 9.428370475769043, -1.7687559127807617, 0.7048616409301758, -4.187696933746338, 0.6711826324462891, 0.5104020833969116, -1.071533203125, -0.17919921875, -0.287841796875, 0, 
33, 203938270, 0.15627466142177582, 0.6308655142784119, -0.24076715111732483, 0.7208455204963684, 1, -0.00024368613958358765, 0.00002896878868341446, 0.00005236174911260605, 0.0785951018333435, -0.014467954635620117, 0.0060762763023376465, 9.431683540344238, -1.7368595600128174, 0.729040265083313, -3.3510594367980957, 0.39836543798446655, 0.7200546264648438, -1.072998046875, -0.1787109375, -0.288818359375, 0, 
34, 203946603, 0.1563326120376587, 0.6308196187019348, -0.24094617366790771, 0.7208133339881897, 1, -0.00018040649592876434, -9.890645742416382e-7, 0.00007679779082536697, 0.07872241735458374, -0.01420813798904419, 0.005482375621795654, 9.446967124938965, -1.70569908618927, 0.6576656103134155, -2.4808669090270996, -0.013601159676909447, 1.056087851524353, -1.068603515625, -0.17822265625, -0.289794921875, 0, 
35, 203954936, 0.15578556060791016, 0.6308534741401672, -0.24155347049236298, 0.7206988334655762, 1, -0.00011058151721954346, -0.00002767890691757202, 0.00008253287523984909, 0.07920914888381958, -0.014517605304718018, 0.005308210849761963, 9.505287170410156, -1.7434687614440918, 0.6363250613212585, -1.5206658840179443, -0.3806275427341461, 1.1349538564682007, -1.070556640625, -0.17822265625, -0.286865234375, 0, 
36, 203963269, 0.15572749078273773, 0.6308656334877014, -0.24165397882461548, 0.7206669449806213, 1, -0.00004164688289165497, -0.00005837343633174896, 0.00009682495146989822, 0.0793449878692627, -0.014676988124847412, 0.005184590816497803, 9.52177906036377, -1.7613089084625244, 0.6221757531166077, -0.5727087259292603, -0.8027244806289673, 1.3314919471740723, -1.070556640625, -0.177734375, -0.290771484375, 0, 
37, 203971602, 0.15504090487957, 0.6309763789176941, -0.24208274483680725, 0.7205742001533508, 1, 0.000055369921028614044, -0.00007019937038421631, 0.00010870862752199173, 0.07946658134460449, -0.014933466911315918, 0.004898130893707275, 9.536139488220215, -1.7935981750488281, 0.5869415402412415, 0.7614215612411499, -0.9653492569923401, 1.4949105978012085, -1.0732421875, -0.17626953125, -0.283935546875, 0, 
38, 203979935, 0.15485310554504395, 0.6310216784477234, -0.24205802381038666, 0.7205833196640015, 1, 0.0001455480232834816, -0.00006826967000961304, 0.0001095915213227272, 0.0794638991355896, -0.014995932579040527, 0.004885375499725342, 9.535924911499023, -1.8003393411636353, 0.5859622359275818, 2.001508951187134, -0.9388129115104675, 1.507051944732666, -1.071044921875, -0.1767578125, -0.288818359375, 0, 
39, 203988268, 0.1539950966835022, 0.631199061870575, -0.24227160215377808, 0.7205399870872498, 0.9999999403953552, 0.00024446938186883926, -0.00007811002433300018, 0.00012202281504869461, 0.08008909225463867, -0.014969170093536377, 0.004674077033996582, 9.610880851745605, -1.7975187301635742, 0.560566782951355, 3.3618297576904297, -1.0741328001022339, 1.6780012845993042, -1.074462890625, -0.17724609375, -0.291748046875, 0, 
40, 203996601, 0.15367993712425232, 0.6312738656997681, -0.2421138882637024, 0.7205947041511536, 0.9999999403953552, 0.00033742841333150864, -0.00007123127579689026, 0.00011723581701517105, 0.080177903175354, -0.014985799789428711, 0.004654586315155029, 9.621578216552734, -1.799211859703064, 0.5585020780563354, 4.640160083770752, -0.9795396327972412, 1.6121728420257568, -1.072509765625, -0.1787109375, -0.288330078125, 0, 
41, 204004934, 0.152935191988945, 0.631412148475647, -0.2423309087753296, 0.7205590009689331, 0.9999998807907104, 0.0004136012867093086, -0.00005319714546203613, 0.0001113181933760643, 0.08040523529052734, -0.014668822288513184, 0.004694163799285889, 9.64885425567627, -1.7611362934112549, 0.5635281205177307, 5.6876540184021, -0.7315425276756287, 1.5307964086532593, -1.0751953125, -0.17578125, -0.284423828125, 0, 
42, 204013267, 0.15253013372421265, 0.631513774394989, -0.24206948280334473, 0.7206436991691589, 0.9999998807907104, 0.0004801945760846138, -0.00007756799459457397, 0.00011449400335550308, 0.08052229881286621, -0.014374971389770508, 0.005102574825286865, 9.662919044494629, -1.7258410453796387, 0.6124088764190674, 6.6034135818481445, -1.0666793584823608, 1.5744684934616089, -1.072021484375, -0.1787109375, -0.287841796875, 0, 
43, 204021600, 0.15154621005058289, 0.6317732334136963, -0.24201767146587372, 0.7206411957740784, 0.9999998211860657, 0.0005326559767127037, -0.00009440816938877106, 0.00010760966688394547, 0.08043116331100464, -0.013897716999053955, 0.005090653896331787, 9.652006149291992, -1.6684913635253906, 0.6108806133270264, 7.324839115142822, -1.2982574701309204, 1.479798436164856, -1.0703125, -0.1806640625, -0.287353515625, 0, 
44, 204029933, 0.1510557234287262, 0.6319101452827454, -0.24169519543647766, 0.7207323908805847, 0.9999998211860657, 0.0005850987508893013, -0.00011055357754230499, 0.00012961495667696, 0.08058124780654907, -0.013444840908050537, 0.005444049835205078, 9.670003890991211, -1.6142842769622803, 0.6531918048858643, 8.04600715637207, -1.5202817916870117, 1.782404899597168, -1.07080078125, -0.17578125, -0.284423828125, 0, 
45, 204038266, 0.1501944661140442, 0.6321302056312561, -0.24172426760196686, 0.7207098603248596, 0.9999997615814209, 0.0006294911727309227, -0.00011022016406059265, 0.00014820042997598648, 0.08079397678375244, -0.013464808464050293, 0.005275428295135498, 9.695500373840332, -1.616848111152649, 0.6330268979072571, 8.656472206115723, -1.5156968832015991, 2.0379838943481445, -1.072265625, -0.17919921875, -0.281982421875, 0, 
46, 204046599, 0.14961595833301544, 0.6322810649871826, -0.24136364459991455, 0.7208186984062195, 0.9999997615814209, 0.0006746696308255196, -0.00012530386447906494, 0.00016795378178358078, 0.08051592111587524, -0.013353109359741211, 0.005433261394500732, 9.66210651397705, -1.6036381721496582, 0.651885986328125, 9.277745246887207, -1.7231208086013794, 2.3096227645874023, -1.07373046875, -0.17919921875, -0.284912109375, 0, 
47, 204054932, 0.148509681224823, 0.6326106786727905, -0.24113033711910248, 0.7208361625671387, 0.9999997615814209, 0.0006985394284129143, -0.00015082210302352905, 0.00016927625983953476, 0.08045393228530884, -0.013152539730072021, 0.0053375959396362305, 9.654687881469727, -1.5795482397079468, 0.6401856541633606, 9.60599136352539, -2.074035882949829, 2.3278088569641113, -1.0712890625, -0.17919921875, -0.281005859375, 0, 
48, 204063265, 0.14789332449436188, 0.6327921748161316, -0.24073339998722076, 0.7209364175796509, 0.9999997019767761, 0.0007272688671946526, -0.00015669874846935272, 0.00016337167471647263, 0.08062219619750977, -0.01288902759552002, 0.005182504653930664, 9.674898147583008, -1.5478464365005493, 0.6215439438819885, 10.001066207885742, -2.154849052429199, 2.246612071990967, -1.0703125, -0.1787109375, -0.284912109375, 0, 
49, 204071598, 0.14683903753757477, 0.6331268548965454, -0.24046072363853455, 0.7209490537643433, 0.9999997019767761, 0.0007506133988499641, -0.00016360916197299957, 0.0001605181023478508, 0.08071094751358032, -0.012924611568450928, 0.005191147327423096, 9.685551643371582, -1.5521198511123657, 0.6225354671478271, 10.322089195251465, -2.249877691268921, 2.2073707580566406, -1.07666015625, -0.17919921875, -0.280029296875, 0, 
50, 204079931, 0.14620068669319153, 0.6333174109458923, -0.240007683634758, 0.721062421798706, 0.9999996423721313, 0.0007860055193305016, -0.0001521371304988861, 0.0001432253047823906, 0.08043396472930908, -0.012852847576141357, 0.005248308181762695, 9.652337074279785, -1.5432831048965454, 0.6295685172080994, 10.808785438537598, -2.0921199321746826, 1.9695684909820557, -1.07470703125, -0.17626953125, -0.276611328125, 0, 
51, 204088264, 0.14518341422080994, 0.6336528062820435, -0.23966041207313538, 0.7210885286331177, 0.9999996423721313, 0.0008159326389431953, -0.00015251152217388153, 0.00013987068086862564, 0.0802186131477356, -0.012805938720703125, 0.0052613019943237305, 9.62649917602539, -1.5376132726669312, 0.6311653852462769, 11.220328330993652, -2.0972681045532227, 1.9234369993209839, -1.07275390625, -0.17724609375, -0.280517578125, 0, 
52, 204096597, 0.14451612532138824, 0.6338618993759155, -0.2391708791255951, 0.7212013602256775, 0.9999996423721313, 0.0008332794532179832, -0.00016750209033489227, 0.00013617705553770065, 0.08017301559448242, -0.012630581855773926, 0.005160868167877197, 9.621042251586914, -1.5165289640426636, 0.61897873878479, 11.45887565612793, -2.3034112453460693, 1.872644066810608, -1.07373046875, -0.1787109375, -0.282470703125, 0, 
53, 204104930, 0.14348432421684265, 0.6342313885688782, -0.23874400556087494, 0.7212240099906921, 0.9999996423721313, 0.0008508889004588127, -0.00017753057181835175, 0.00012964848428964615, 0.08001840114593506, -0.012688279151916504, 0.005151629447937012, 9.602502822875977, -1.5233758687973022, 0.6178100109100342, 11.701031684875488, -2.4413185119628906, 1.78286612033844, -1.07177734375, -0.1796875, -0.276123046875, 0, 
54, 204113263, 0.1427953690290451, 0.6344515681266785, -0.23822912573814392, 0.7213373184204102, 0.9999995827674866, 0.0008669579401612282, -0.00017684698104858398, 0.0001329435035586357, 0.07951736450195312, -0.012394487857818604, 0.004928231239318848, 9.542370796203613, -1.4881577491760254, 0.5910115242004395, 11.922003746032715, -2.431917905807495, 1.8281776905059814, -1.0712890625, -0.18017578125, -0.280517578125, 0, 
55, 204121596, 0.14167296886444092, 0.6348548531532288, -0.237679123878479, 0.7213852405548096, 0.9999995827674866, 0.0008827662095427513, -0.00017945840954780579, 0.0001392485573887825, 0.07965314388275146, -0.012252211570739746, 0.005159556865692139, 9.558664321899414, -1.4711120128631592, 0.6187524795532227, 12.139394760131836, -2.4678292274475098, 1.9148821830749512, -1.0751953125, -0.177734375, -0.278076171875, 0, 
56, 204129929, 0.1409677416086197, 0.6350822448730469, -0.23714900016784668, 0.721497654914856, 0.9999995827674866, 0.0008890638127923012, -0.00018457509577274323, 0.00013282615691423416, 0.07965421676635742, -0.012045979499816895, 0.005041062831878662, 9.558808326721191, -1.4463006258010864, 0.6044772267341614, 12.225996017456055, -2.538191795349121, 1.8265641927719116, -1.076171875, -0.17822265625, -0.277099609375, 0, 
57, 204138262, 0.14004209637641907, 0.6354368925094604, -0.23671633005142212, 0.7215080261230469, 0.9999995827674866, 0.0008892780169844627, -0.0001856200397014618, 0.0001317327842116356, 0.07951325178146362, -0.012188136577606201, 0.005224764347076416, 9.541895866394043, -1.4633276462554932, 0.626531183719635, 12.22894287109375, -2.5525615215301514, 1.8115285634994507, -1.07568359375, -0.17822265625, -0.273681640625, 0, 
58, 204146595, 0.13933369517326355, 0.6356660723686218, -0.2361873835325241, 0.7216166853904724, 0.9999995827674866, 0.000889594666659832, -0.000189146026968956, 0.00013475771993398666, 0.0796668529510498, -0.012055814266204834, 0.005041003227233887, 9.560323715209961, -1.4474964141845703, 0.6044302582740784, 12.233296394348145, -2.6010489463806152, 1.8531261682510376, -1.0732421875, -0.17724609375, -0.271728515625, 0, 
59, 204154928, 0.13843244314193726, 0.6360223293304443, -0.23572798073291779, 0.7216261625289917, 0.9999995827674866, 0.0008891234174370766, -0.00018720515072345734, 0.00012800749391317368, 0.07969862222671509, -0.011739194393157959, 0.005184292793273926, 9.564153671264648, -1.4094250202178955, 0.6216071248054504, 12.226816177368164, -2.57435941696167, 1.7603003978729248, -1.072265625, -0.17822265625, -0.269775390625, 0, 
60, 204163261, 0.1377325803041458, 0.6362412571907043, -0.23520582914352417, 0.7217374444007874, 0.9999995827674866, 0.0008785193786025047, -0.00017907656729221344, 0.00013531092554330826, 0.07975733280181885, -0.011762440204620361, 0.005449950695037842, 9.571187973022461, -1.412280559539795, 0.6535394191741943, 12.080994606018066, -2.462578535079956, 1.8607335090637207, -1.0712890625, -0.17822265625, -0.273193359375, 0, 
61, 204171594, 0.1368771493434906, 0.6365891098976135, -0.2347373366355896, 0.7217460870742798, 0.9999995827674866, 0.0008686361834406853, -0.00017897039651870728, 0.0001207524910569191, 0.07972675561904907, -0.011653423309326172, 0.005477428436279297, 9.567541122436523, -1.399053931236267, 0.6568182110786438, 11.945083618164062, -2.461118221282959, 1.6605323553085327, -1.07421875, -0.18310546875, -0.270263671875, 0, 
62, 204179927, 0.13620945811271667, 0.6368048191070557, -0.23421865701675415, 0.7218506932258606, 0.9999996423721313, 0.0008535189554095268, -0.00017387233674526215, 0.00011402834206819534, 0.07945436239242554, -0.011424005031585693, 0.005278646945953369, 9.534857749938965, -1.371484398841858, 0.6329734921455383, 11.737200736999512, -2.39101243019104, 1.5680652856826782, -1.072265625, -0.17822265625, -0.272705078125, 0, 
63, 204188260, 0.1354978233575821, 0.6371116042137146, -0.23384709656238556, 0.7218342423439026, 0.9999996423721313, 0.0008287811651825905, -0.0001788996160030365, 0.00012260396033525467, 0.07950270175933838, -0.011128127574920654, 0.00526660680770874, 9.540654182434082, -1.3360844850540161, 0.6314091682434082, 11.397017478942871, -2.4601454734802246, 1.6859933137893677, -1.0732421875, -0.1787109375, -0.267333984375, 0, 
64, 204196593, 0.1348518580198288, 0.6373129487037659, -0.2333800047636032, 0.7219286561012268, 0.9999996423721313, 0.0007980326190590858, -0.0001719929277896881, 0.00013293419033288956, 0.07948547601699829, -0.011271655559539795, 0.005129754543304443, 9.53856372833252, -1.353431224822998, 0.6150331497192383, 10.974177360534668, -2.3651676177978516, 1.8280497789382935, -1.07373046875, -0.1806640625, -0.267333984375, 0, 
65, 204204926, 0.13408437371253967, 0.6376295685768127, -0.23294855654239655, 0.721931517124176, 0.9999997019767761, 0.0007683699950575829, -0.00016360171139240265, 0.0001401929184794426, 0.07969874143600464, -0.011143684387207031, 0.005400538444519043, 9.5641508102417, -1.3381240367889404, 0.6475627422332764, 10.566268920898438, -2.2497751712799072, 1.9278682470321655, -1.0732421875, -0.17822265625, -0.266357421875, 0, 
66, 204213259, 0.1334565430879593, 0.6378117799758911, -0.23252829909324646, 0.7220224738121033, 0.9999997019767761, 0.0007493952289223671, -0.00016238726675510406, 0.0001535443589091301, 0.07980448007583618, -0.011208832263946533, 0.005039095878601074, 9.576807975769043, -1.346154808998108, 0.6041560173034668, 10.305337905883789, -2.23307466506958, 2.111471176147461, -1.076171875, -0.1806640625, -0.268798828125, 0, 
67, 204221592, 0.13274340331554413, 0.6381096243858337, -0.2321411371231079, 0.7220152616500854, 0.9999997019767761, 0.000730772502720356, -0.0001640133559703827, 0.00015815626829862595, 0.07990783452987671, -0.011351525783538818, 0.005102753639221191, 9.589205741882324, -1.3633251190185547, 0.6117680072784424, 10.049246788024902, -2.2554361820220947, 2.174891948699951, -1.0732421875, -0.1806640625, -0.267822265625, 0, 
68, 204229925, 0.1321384459733963, 0.6382938623428345, -0.23174339532852173, 0.7220913171768188, 0.9999997019767761, 0.0007152305915951729, -0.00017094053328037262, 0.00014886725693941116, 0.07988923788070679, -0.011463642120361328, 0.005197286605834961, 9.586992263793945, -1.3766789436340332, 0.6230407953262329, 9.835521697998047, -2.3506953716278076, 2.0471537113189697, -1.07666015625, -0.1787109375, -0.266845703125, 0, 
69, 204238258, 0.13142362236976624, 0.6386027932167053, -0.2312898188829422, 0.722093939781189, 0.9999997019767761, 0.0007089236751198769, -0.00015073083341121674, 0.0001298254355788231, 0.07977789640426636, -0.011720120906829834, 0.00508803129196167, 9.573639869689941, -1.407272219657898, 0.6101469397544861, 9.748791694641113, -2.0727808475494385, 1.78529953956604, -1.074462890625, -0.18115234375, -0.265380859375, 0, 
70, 204246591, 0.130872443318367, 0.6387880444526672, -0.23087424039840698, 0.7221631407737732, 0.9999997615814209, 0.0006924169138073921, -0.00016117095947265625, 0.00009725522249937057, 0.07991433143615723, -0.011711955070495605, 0.004760861396789551, 9.590058326721191, -1.4060195684432983, 0.5707630515098572, 9.521798133850098, -2.216348648071289, 1.3374089002609253, -1.0732421875, -0.17822265625, -0.266357421875, 0, 
71, 204254924, 0.1302943080663681, 0.6390832662582397, -0.2304394394159317, 0.7221453189849854, 0.9999997615814209, 0.0006738239899277687, -0.0001432374119758606, 0.00006420817226171494, 0.08011174201965332, -0.011729121208190918, 0.004980146884918213, 9.613787651062012, -1.4077646732330322, 0.5972145795822144, 9.26611614227295, -1.969734787940979, 0.8829612135887146, -1.074951171875, -0.1787109375, -0.264404296875, 0, 
72, 204263257, 0.12982389330863953, 0.6392459273338318, -0.2300165593624115, 0.7222209572792053, 0.9999997615814209, 0.0006447630003094673, -0.00012107193470001221, 0.00004025828093290329, 0.08031028509140015, -0.011716187000274658, 0.00480574369430542, 9.637632369995117, -1.406014084815979, 0.5764607787132263, 8.866482734680176, -1.6649253368377686, 0.5536132454872131, -1.074951171875, -0.1796875, -0.263671875, 0, 
73, 204271590, 0.1293516755104065, 0.6395154595375061, -0.22962123155593872, 0.7221928834915161, 0.9999998211860657, 0.0006027920171618462, -0.0001214202493429184, 0.00003214646130800247, 0.08028185367584229, -0.011572480201721191, 0.005216658115386963, 9.634238243103027, -1.3886839151382446, 0.6256840825080872, 8.289316177368164, -1.669715166091919, 0.44206327199935913, -1.075439453125, -0.1796875, -0.26416015625, 0, 
74, 204279923, 0.12893754243850708, 0.6396792531013489, -0.22924526035785675, 0.7222413420677185, 0.9999998211860657, 0.0005688583478331566, -0.0001323353499174118, 0.000025714747607707977, 0.08034741878509521, -0.011273682117462158, 0.005537688732147217, 9.642126083374023, -1.3527711629867554, 0.6640633940696716, 7.822678089141846, -1.819814920425415, 0.353617399930954, -1.072021484375, -0.179443359375, -0.2607421875, 0, 
75, 204288256, 0.12844890356063843, 0.6399693489074707, -0.22883109748363495, 0.7222025990486145, 0.9999998211860657, 0.0005652373656630516, -0.00013857334852218628, 0.0000323345884680748, 0.08037883043289185, -0.011266589164733887, 0.005254685878753662, 9.64588737487793, -1.3520019054412842, 0.6300351023674011, 7.772884368896484, -1.9055969715118408, 0.4446503818035126, -1.074462890625, -0.17822265625, -0.2587890625, 0, 
76, 204296589, 0.12803466618061066, 0.6401357054710388, -0.22848540544509888, 0.722238302230835, 0.9999998211860657, 0.0005445582792162895, -0.00014628097414970398, 0.000042879022657871246, 0.08046042919158936, -0.010914266109466553, 0.005159974098205566, 9.655672073364258, -1.3098430633544922, 0.6185048222541809, 7.488514423370361, -2.0115888118743896, 0.5896525382995605, -1.077880859375, -0.1767578125, -0.26123046875, 0, 
77, 204304922, 0.12766234576702118, 0.6403779983520508, -0.2282034307718277, 0.7221786379814148, 0.9999998807907104, 0.0004947008565068245, -0.0001332312822341919, 0.00006185006350278854, 0.08050501346588135, -0.011052191257476807, 0.005069613456726074, 9.660985946655273, -1.3266147375106812, 0.607742428779602, 6.802896976470947, -1.8321346044540405, 0.8505334258079529, -1.072509765625, -0.179931640625, -0.262939453125, 0, 
78, 204313255, 0.12728607654571533, 0.6405073404312134, -0.22792072594165802, 0.7222196459770203, 0.9999998807907104, 0.0004713376984000206, -0.00011545419692993164, 0.00006486941128969193, 0.08050405979156494, -0.011117219924926758, 0.004997193813323975, 9.660855293273926, -1.3344621658325195, 0.5992034077644348, 6.481618404388428, -1.5876727104187012, 0.8920541405677795, -1.075439453125, -0.17822265625, -0.2587890625, 0, 
79, 204321588, 0.1269286721944809, 0.6407243609428406, -0.22764021158218384, 0.7221781015396118, 0.9999998807907104, 0.00046642590314149857, -0.00010187365114688873, 0.00007069949060678482, 0.08033740520477295, -0.011032402515411377, 0.005204200744628906, 9.640843391418457, -1.3243407011032104, 0.6241558790206909, 6.4140729904174805, -1.4009193181991577, 0.972226619720459, -1.073974609375, -0.179931640625, -0.2568359375, 0, 
80, 204329921, 0.1265786588191986, 0.640825092792511, -0.22738438844680786, 0.722230851650238, 0.9999998807907104, 0.00043399911373853683, -0.00008448585867881775, 0.00007120613008737564, 0.08029049634933472, -0.011119544506072998, 0.005548000335693359, 9.63520336151123, -1.3348115682601929, 0.6655423045158386, 5.968155860900879, -1.1618105173110962, 0.9791938662528992, -1.074462890625, -0.179443359375, -0.25439453125, 0, 
81, 204338254, 0.12622228264808655, 0.6410379409790039, -0.22709016501903534, 0.7221968770027161, 0.9999999403953552, 0.00040335673838853836, -0.00008424371480941772, 0.00006754044443368912, 0.08037936687469482, -0.011263549327850342, 0.005450546741485596, 9.645872116088867, -1.3520774841308594, 0.6538175940513611, 5.5467753410339355, -1.1584804058074951, 0.9287848472595215, -1.075927734375, -0.1806640625, -0.25732421875, 0, 
82, 204346587, 0.12591367959976196, 0.6411213874816895, -0.2268747240304947, 0.722244381904602, 0.9999999403953552, 0.00037531834095716476, -0.00007095001637935638, 0.00007039029151201248, 0.08045721054077148, -0.011118531227111816, 0.0054479241371154785, 9.655203819274902, -1.3347060680389404, 0.6535950303077698, 5.1612043380737305, -0.9756719470024109, 0.967974841594696, -1.076416015625, -0.1787109375, -0.2578125, 0, 
83, 204354920, 0.1256416290998459, 0.6413004398345947, -0.22665530443191528, 0.7222016453742981, 0.9999999403953552, 0.0003351503983139992, -0.00006995908915996552, 0.00007258076220750809, 0.08067023754119873, -0.011113762855529785, 0.005459845066070557, 9.680766105651855, -1.3341749906539917, 0.654983639717102, 4.6088337898254395, -0.9620450735092163, 0.9980971813201904, -1.073974609375, -0.179931640625, -0.25830078125, 0, 
84, 204363253, 0.12535786628723145, 0.6413715481758118, -0.22648881375789642, 0.7222399711608887, 0.9999999403953552, 0.0003202734515070915, -0.00006837397813796997, 0.0000854814425110817, 0.0810886025428772, -0.011644363403320312, 0.005235731601715088, 9.730941772460938, -1.3980356454849243, 0.6280863285064697, 4.404253005981445, -0.9402473568916321, 1.1755013465881348, -1.077392578125, -0.18115234375, -0.2568359375, 0, 
85, 204371586, 0.12511377036571503, 0.6415194272994995, -0.2262951135635376, 0.7222118377685547, 0.9999999403953552, 0.0003206869587302208, -0.00004454515874385834, 0.000086919404566288, 0.08143717050552368, -0.011719882488250732, 0.005123794078826904, 9.772749900817871, -1.407133936882019, 0.6148965954780579, 4.409938812255859, -0.6125644445419312, 1.1952754259109497, -1.072509765625, -0.179931640625, -0.25390625, 0, 
86, 204379919, 0.12485624849796295, 0.6415478587150574, -0.2261313796043396, 0.7222824096679688, 0.9999999403953552, 0.00030340347439050674, -0.000011129304766654968, 0.00008209887892007828, 0.08166635036468506, -0.011563241481781006, 0.004820108413696289, 9.800256729125977, -1.3882129192352295, 0.5787182450294495, 4.172264575958252, -0.15304507315158844, 1.12898588180542, -1.075927734375, -0.18115234375, -0.2578125, 0, 
87, 204388252, 0.12463629245758057, 0.641650378704071, -0.22592170536518097, 0.7222951054573059, 0.9999999403953552, 0.0002828063443303108, 0.000024695880711078644, 0.00007621292024850845, 0.08156031370162964, -0.0114859938621521, 0.005406200885772705, 9.787503242492676, -1.3789563179016113, 0.6494235992431641, 3.889021396636963, 0.33960628509521484, 1.0480446815490723, -1.072998046875, -0.181396484375, -0.25537109375, 0, 
88, 204396585, 0.12444008886814117, 0.6416295170783997, -0.2257908582687378, 0.7223883271217346, 0.9999999403953552, 0.00023947004228830338, 0.00004876125603914261, 0.0000729123130440712, 0.08092081546783447, -0.011256158351898193, 0.0053438544273376465, 9.710766792297363, -1.351300835609436, 0.6420186758041382, 3.293081521987915, 0.670542299747467, 1.0026565790176392, -1.079833984375, -0.18115234375, -0.2587890625, 0, 
89, 204404918, 0.12428303062915802, 0.6417052745819092, -0.22561988234519958, 0.7224014401435852, 1, 0.000214441679418087, 0.000050292350351810455, 0.00006674323230981827, 0.08058375120162964, -0.011230945587158203, 0.00549548864364624, 9.67029857635498, -1.3483341932296753, 0.6603575944900513, 2.9489026069641113, 0.691597044467926, 0.9178219437599182, -1.073486328125, -0.181396484375, -0.25439453125, 0, 
90, 204413251, 0.12411244213581085, 0.641681969165802, -0.22552262246608734, 0.722481906414032, 1, 0.0001956867054104805, 0.000044084154069423676, 0.00007496308535337448, 0.0801541805267334, -0.011247456073760986, 0.005448102951049805, 9.618717193603516, -1.3505195379257202, 0.6546929478645325, 2.690993070602417, 0.6062248945236206, 1.0308576822280884, -1.075927734375, -0.18115234375, -0.2587890625, 0, 
91, 204421584, 0.1239885538816452, 0.6417458057403564, -0.22538603842258453, 0.722489058971405, 1, 0.0001627383753657341, 0.00005425047129392624, 0.00007145758718252182, 0.07995355129241943, -0.01127016544342041, 0.005551397800445557, 9.594695091247559, -1.3529719114303589, 0.6668335795402527, 2.237902879714966, 0.746027410030365, 0.9826516509056091, -1.073974609375, -0.178466796875, -0.25732421875, 0, 
92, 204429917, 0.12386912107467651, 0.6417133212089539, -0.22532536089420319, 0.7225573062896729, 1, 0.00013253558427095413, 0.00004999246448278427, 0.00006205122917890549, 0.07991546392440796, -0.011646807193756104, 0.005744278430938721, 9.590087890625, -1.398300290107727, 0.6901693940162659, 1.8225681781768799, 0.6874732971191406, 0.8532998561859131, -1.074462890625, -0.18017578125, -0.25732421875, 0, 
93, 204438250, 0.12387353181838989, 0.6417480111122131, -0.22528527677059174, 0.7225381731987, 1, 0.00009834859520196915, 0.000054220668971538544, 0.000054941512644290924, 0.07990819215774536, -0.011958777904510498, 0.005524337291717529, 9.589146614074707, -1.4359900951385498, 0.6642078161239624, 1.3524444103240967, 0.7456175684928894, 0.7555302977561951, -1.075439453125, -0.18310546875, -0.25927734375, 0, 
94, 204446583, 0.12379449605941772, 0.6417175531387329, -0.22523930668830872, 0.7225931286811829, 1, 0.00009315367788076401, 0.00004727859050035477, 0.0000403793528676033, 0.07979774475097656, -0.012071430683135986, 0.005519568920135498, 9.576111793518066, -1.4486291408538818, 0.6623748540878296, 1.2810062170028687, 0.6501533389091492, 0.5552781820297241, -1.074462890625, -0.18310546875, -0.2548828125, 0, 
95, 204454916, 0.12374597042798996, 0.6417840123176575, -0.22512678802013397, 0.7225775718688965, 1, 0.00008441973477602005, 0.00004367996007204056, 0.0000329846516251564, 0.0797995924949646, -0.011895596981048584, 0.00580519437789917, 9.576333045959473, -1.4275286197662354, 0.6966511607170105, 1.1609010696411133, 0.6006665229797363, 0.45358961820602417, -1.074951171875, -0.178955078125, -0.25390625, 0, 
96, 204463249, 0.12369650602340698, 0.641765296459198, -0.22509071230888367, 0.7226139307022095, 1, 0.00006452854722738266, 0.00003243330866098404, 0.000020441599190235138, 0.07967352867126465, -0.012049496173858643, 0.0056607723236083984, 9.56120491027832, -1.445997714996338, 0.6793196797370911, 0.8873667120933533, 0.4460078477859497, 0.28110337257385254, -1.073486328125, -0.181396484375, -0.2568359375, 0, 
97, 204471582, 0.12369426339864731, 0.641833484172821, -0.22500410676002502, 0.7225805521011353, 1, 0.00005604047328233719, 0.000029775314033031464, 0.000015550293028354645, 0.07975190877914429, -0.011870026588439941, 0.005653321743011475, 9.570611000061035, -1.4244600534439087, 0.678425669670105, 0.7706426978111267, 0.409456342458725, 0.21384042501449585, -1.077392578125, -0.18310546875, -0.25634765625, 0, 
98, 204479915, 0.12366322427988052, 0.6418105959892273, -0.22499121725559235, 0.7226102352142334, 1, 0.00003424938768148422, 0.00003255624324083328, 0.000022131018340587616, 0.07973766326904297, -0.01176464557647705, 0.005629479885101318, 9.568902015686035, -1.411813735961914, 0.675564706325531, 0.4709817171096802, 0.4476984143257141, 0.30433550477027893, -1.074462890625, -0.181884765625, -0.251953125, 0, 
99, 204488248, 0.12362626940011978, 0.6418800950050354, -0.22489681839942932, 0.7225842475891113, 1, 0.000032582320272922516, 0.000031820498406887054, 0.00003226194530725479, 0.07993525266647339, -0.01177215576171875, 0.005818486213684082, 9.592613220214844, -1.4127153158187866, 0.6982460021972656, 0.44805699586868286, 0.43758076429367065, 0.44365134835243225, -1.075927734375, -0.181640625, -0.25732421875, 0, 
100, 204496581, 0.12357909977436066, 0.6418455243110657, -0.2248973399400711, 0.722622811794281, 1, 0.00003552902489900589, 0.000041532330214977264, 0.00004623737186193466, 0.07991975545883179, -0.011714935302734375, 0.005702614784240723, 9.590753555297852, -1.4058481454849243, 0.6843412518501282, 0.4885787069797516, 0.5711333751678467, 0.6358349919319153, -1.073974609375, -0.182373046875, -0.2548828125, 0, 
101, 204504914, 0.12363771349191666, 0.6418730020523071, -0.22492310404777527, 0.7225803732872009, 1, 0.000029228627681732178, 0.000028192996978759766, 0.00005991198122501373, 0.07976478338241577, -0.011797845363616943, 0.006076037883758545, 9.572157859802246, -1.415798306465149, 0.7291534543037415, 0.4019385576248169, 0.3876970410346985, 0.8238818645477295, -1.075927734375, -0.1796875, -0.25732421875, 0, 
102, 204513247, 0.12357652187347412, 0.6418371200561523, -0.2249496728181839, 0.7226144671440125, 1, 0.000024390406906604767, 0.00003319885581731796, 0.00007304083555936813, 0.0797763466835022, -0.011913180351257324, 0.005912721157073975, 9.573542594909668, -1.429638385772705, 0.7095550298690796, 0.3354056477546692, 0.45653533935546875, 1.004423975944519, -1.072021484375, -0.180419921875, -0.25244140625, 0, 
103, 204521580, 0.12355953454971313, 0.6418826580047607, -0.22492067515850067, 0.7225860357284546, 1, 0.000026234425604343414, 0.000026159919798374176, 0.00007039587944746017, 0.07973968982696533, -0.012151539325714111, 0.005703628063201904, 9.569145202636719, -1.4582428932189941, 0.6844626665115356, 0.36076369881629944, 0.3597390949726105, 0.968051552772522, -1.074462890625, -0.182373046875, -0.25341796875, 0, 
104, 204529913, 0.12350435554981232, 0.6418609619140625, -0.2249385118484497, 0.7226091623306274, 1, 0.00002640392631292343, 0.00001844111829996109, 0.00005857553333044052, 0.07968884706497192, -0.012344598770141602, 0.005676865577697754, 9.563043594360352, -1.4814109802246094, 0.681251049041748, 0.3630945682525635, 0.25359371304512024, 0.8055036664009094, -1.076904296875, -0.17919921875, -0.255859375, 0, 
105, 204538246, 0.12338685989379883, 0.641956090927124, -0.22479049861431122, 0.7225906848907471, 1, 0.000035868026316165924, 0.000010532326996326447, 0.00004483666270971298, 0.07994180917739868, -0.012649118900299072, 0.00589221715927124, 9.593400001525879, -1.5179548263549805, 0.7070943117141724, 0.49324050545692444, 0.1448356807231903, 0.6165730357170105, -1.075927734375, -0.1787109375, -0.2578125, 0, 
106, 204546579, 0.12333362549543381, 0.6419462561607361, -0.22477862238883972, 0.722612202167511, 1, 0.00004792865365743637, 0.000013080425560474396, 0.000035542063415050507, 0.08007776737213135, -0.012657642364501953, 0.005787909030914307, 9.609715461730957, -1.5189777612686157, 0.6945767998695374, 0.6590927839279175, 0.17987598478794098, 0.48875805735588074, -1.073974609375, -0.181640625, -0.2578125, 0, 
107, 204554912, 0.12327906489372253, 0.6420249342918396, -0.22466817498207092, 0.722585916519165, 1, 0.00005944352596998215, 0.000007509253919124603, 0.00003134924918413162, 0.08028912544250488, -0.012743771076202393, 0.005988895893096924, 9.635080337524414, -1.5293134450912476, 0.7186964750289917, 0.8174399137496948, 0.10326378792524338, 0.43110042810440063, -1.074951171875, -0.1826171875, -0.25537109375, 0, 
108, 204563245, 0.12321455031633377, 0.6420266032218933, -0.22463193535804749, 0.7226067185401917, 1, 0.00007396098226308823, 0.00000477861613035202, 0.000025375746190547943, 0.08041006326675415, -0.012765467166900635, 0.005991458892822266, 9.649592399597168, -1.5319172143936157, 0.7190037965774536, 1.0170772075653076, 0.0657133162021637, 0.34895551204681396, -1.072998046875, -0.181884765625, -0.25439453125, 0, 
109, 204571578, 0.1231900081038475, 0.6420941352844238, -0.22453878819942474, 0.7225799560546875, 1, 0.00007149484008550644, 0.000009209848940372467, 0.00002455431967973709, 0.08064150810241699, -0.012590646743774414, 0.006208598613739014, 9.677367210388184, -1.510938286781311, 0.745061457157135, 0.9831638932228088, 0.12664958834648132, 0.337659627199173, -1.074462890625, -0.180419921875, -0.25439453125, 0, 
110, 204579911, 0.1231202557682991, 0.6420972347259521, -0.224515900015831, 0.7225962281227112, 1, 0.00006699282675981522, -0.00000186823308467865, 0.00003704335540533066, 0.08037233352661133, -0.012221693992614746, 0.005985081195831299, 9.645065307617188, -1.4666616916656494, 0.7182386517524719, 0.9212544560432434, -0.0256910789757967, 0.5094031691551208, -1.075439453125, -0.1796875, -0.25537109375, 0, 
111, 204588244, 0.1231054961681366, 0.6421438455581665, -0.2244541347026825, 0.7225765585899353, 1, 0.0000665830448269844, 0.000019458122551441193, 0.0000431770458817482, 0.0802847146987915, -0.011950969696044922, 0.006048858165740967, 9.634550094604492, -1.434173583984375, 0.7258919477462769, 0.9156191945075989, 0.2675791084766388, 0.5937508344650269, -1.073974609375, -0.182373046875, -0.25537109375, 0, 
112, 204596577, 0.12302812933921814, 0.642113983631134, -0.22445249557495117, 0.7226167917251587, 1, 0.0000578882172703743, 0.000033068470656871796, 0.00006670039147138596, 0.08035159111022949, -0.011529207229614258, 0.005689501762390137, 9.64257526397705, -1.3835598230361938, 0.682767927646637, 0.7960519790649414, 0.45474231243133545, 0.9172329306602478, -1.077392578125, -0.1845703125, -0.2587890625, 0, 
113, 204604910, 0.1230417862534523, 0.6421197652816772, -0.2244478017091751, 0.7226106524467468, 1, 0.000039664097130298615, 0.000048113055527210236, 0.0000727018341422081, 0.08030557632446289, -0.01144719123840332, 0.005757570266723633, 9.637053489685059, -1.3737177848815918, 0.6909360289573669, 0.5454423427581787, 0.6616285443305969, 0.9997621178627014, -1.074951171875, -0.18212890625, -0.2578125, 0, 
114, 204613243, 0.1229986771941185, 0.6420704126358032, -0.22447489202022552, 0.7226534485816956, 1, 0.00001347716897726059, 0.00005301181226968765, 0.00006509106606245041, 0.08019721508026123, -0.011427104473114014, 0.006010591983795166, 9.62405014038086, -1.3713072538375854, 0.7212998270988464, 0.185331791639328, 0.728993833065033, 0.8951022028923035, -1.073974609375, -0.178466796875, -0.2568359375, 0, 
115, 204621576, 0.12310107797384262, 0.6420533657073975, -0.224546417593956, 0.7226289510726929, 1, -0.00000622868537902832, 0.000048891641199588776, 0.00006746780127286911, 0.08004581928253174, -0.011251449584960938, 0.00597459077835083, 9.60588264465332, -1.3502280712127686, 0.7169796228408813, -0.08565399795770645, 0.672335147857666, 0.9277859926223755, -1.074462890625, -0.1826171875, -0.255859375, 0, 
116, 204629909, 0.12310060113668442, 0.6419916152954102, -0.22459866106510162, 0.7226676344871521, 1, -0.00003444962203502655, 0.00006587151437997818, 0.00005284976214170456, 0.08013308048248291, -0.011386215686798096, 0.0060427188873291016, 9.616352081298828, -1.3664007186889648, 0.7251548171043396, -0.4737352430820465, 0.9058345556259155, 0.726765513420105, -1.075439453125, -0.18115234375, -0.2568359375, 0, 
117, 204638242, 0.12313705682754517, 0.6419897675514221, -0.22459673881530762, 0.7226637601852417, 1, -0.000046603381633758545, 0.00006680097430944443, 0.00005821976810693741, 0.07986640930175781, -0.011678218841552734, 0.005608558654785156, 9.584351539611816, -1.4014421701431274, 0.6730539202690125, -0.6408681273460388, 0.9186160564422607, 0.8006113171577454, -1.075927734375, -0.18115234375, -0.25439453125, 0, 
118, 204646575, 0.12314493209123611, 0.6419287323951721, -0.22467312216758728, 0.7226929068565369, 1, -0.00005895830690860748, 0.00005820486694574356, 0.0000611795112490654, 0.0799860954284668, -0.011707603931427002, 0.006060600280761719, 9.598714828491211, -1.4049686193466187, 0.7273010611534119, -0.8107672929763794, 0.8004063367843628, 0.8413122892379761, -1.071533203125, -0.182373046875, -0.255859375, 0, 
119, 204654908, 0.12318603694438934, 0.6419325470924377, -0.22468285262584686, 0.7226793766021729, 1, -0.00006721355020999908, 0.00005541834980249405, 0.00006045494228601456, 0.08009105920791626, -0.01170426607131958, 0.0059465765953063965, 9.611310958862305, -1.4045679569244385, 0.7136176824569702, -0.9242895841598511, 0.7620874643325806, 0.8313484787940979, -1.071044921875, -0.182373046875, -0.255859375, 0, 
120, 204663241, 0.12320403009653091, 0.6418759226799011, -0.22477507591247559, 0.7226980328559875, 1, -0.00007883645594120026, 0.00004860851913690567, 0.00006186868995428085, 0.08014768362045288, -0.011837661266326904, 0.005892157554626465, 9.6181058883667, -1.4205760955810547, 0.7070871591567993, -1.0841224193572998, 0.668441891670227, 0.8507896065711975, -1.077392578125, -0.17822265625, -0.255859375, 0, 
121, 204671574, 0.1232834979891777, 0.6418699622154236, -0.22482247650623322, 0.7226750254631042, 1, -0.00009607337415218353, 0.00005377922207117081, 0.000060449354350566864, 0.08013004064559937, -0.011864304542541504, 0.0060659050941467285, 9.615752220153809, -1.4250037670135498, 0.7286554574966431, -1.3211565017700195, 0.7395469546318054, 0.8312714695930481, -1.076904296875, -0.1826171875, -0.25439453125, 0, 
122, 204679907, 0.12331366539001465, 0.641813337802887, -0.22492752969264984, 0.7226874828338623, 1, -0.00009734183549880981, 0.0000459207221865654, 0.000060667283833026886, 0.07979613542556763, -0.011670291423797607, 0.006027519702911377, 9.575687408447266, -1.4017627239227295, 0.72392338514328, -1.3386000394821167, 0.6314805746078491, 0.8342684507369995, -1.075439453125, -0.18408203125, -0.25634765625, 0, 
123, 204688240, 0.12336152791976929, 0.6418197154998779, -0.2249549925327301, 0.7226651310920715, 1, -0.00010580196976661682, 0.00004634726792573929, 0.00006459932774305344, 0.07982820272445679, -0.011497914791107178, 0.005911409854888916, 9.579559326171875, -1.3809858560562134, 0.7099038362503052, -1.454939842224121, 0.6373462080955505, 0.8883400559425354, -1.074951171875, -0.179931640625, -0.25439453125, 0, 
124, 204696573, 0.12341689318418503, 0.6417623162269592, -0.22508054971694946, 0.7226675748825073, 1, -0.000130506232380867, 0.00004327204078435898, 0.000054807402193546295, 0.07981187105178833, -0.011449217796325684, 0.006084561347961426, 9.577661514282227, -1.3748047351837158, 0.7304962277412415, -1.794661283493042, 0.5950570702552795, 0.7536860108375549, -1.074462890625, -0.180908203125, -0.25537109375, 0, 
125, 204704906, 0.12353968620300293, 0.6417549848556519, -0.2251518815755844, 0.7226307988166809, 1, -0.00014392100274562836, 0.000048677437007427216, 0.00004421267658472061, 0.07982587814331055, -0.011429548263549805, 0.006119251251220703, 9.57937240600586, -1.3722305297851562, 0.7346594333648682, -1.979135274887085, 0.6693897247314453, 0.6079923510551453, -1.075927734375, -0.18115234375, -0.25732421875, 0, 
126, 204713239, 0.12363893538713455, 0.6416890025138855, -0.22528505325317383, 0.7226309180259705, 1, -0.0001660119742155075, 0.00005692336708307266, 0.000029684044420719147, 0.07965981960296631, -0.011253595352172852, 0.006353795528411865, 9.559480667114258, -1.3508714437484741, 0.762786865234375, -2.2829201221466064, 0.7827839255332947, 0.40820127725601196, -1.075439453125, -0.1826171875, -0.25634765625, 0, 
127, 204721572, 0.12383173406124115, 0.6416754126548767, -0.22537408769130707, 0.7225821018218994, 1, -0.0001990385353565216, 0.000055767595767974854, 0.000006420537829399109, 0.07947593927383423, -0.011239409446716309, 0.0060233473777771, 9.537460327148438, -1.3489259481430054, 0.7230141162872314, -2.737086296081543, 0.766890287399292, 0.08829227089881897, -1.075927734375, -0.18017578125, -0.25390625, 0, 
128, 204729905, 0.12399254739284515, 0.6416184902191162, -0.22553451359272003, 0.7225551009178162, 1, -0.0002301447093486786, 0.000043579377233982086, -0.0000024568289518356323, 0.07983022928237915, -0.011021733283996582, 0.006182253360748291, 9.579978942871094, -1.3228206634521484, 0.7420228123664856, -3.1648435592651367, 0.5992833971977234, -0.033785175532102585, -1.073974609375, -0.181396484375, -0.2568359375, 0, 
129, 204738238, 0.12421048432588577, 0.641620397567749, -0.2256564050912857, 0.7224778532981873, 0.9999999403953552, -0.000267714262008667, 0.000029855407774448395, 0.0000019976869225502014, 0.08007675409317017, -0.010876595973968506, 0.006215989589691162, 9.609574317932129, -1.305423378944397, 0.7458970546722412, -3.6814823150634766, 0.41055768728256226, 0.027471262961626053, -1.075439453125, -0.18017578125, -0.25732421875, 0, 
130, 204746571, 0.12439480423927307, 0.6415629982948303, -0.22588299214839935, 0.722426176071167, 0.9999999403953552, -0.0002986472100019455, 0.00002519134432077408, 0.000020205043256282806, 0.08033722639083862, -0.01080852746963501, 0.006170034408569336, 9.64080810546875, -1.2974871397018433, 0.7402905225753784, -4.106858253479004, 0.34641969203948975, 0.2778503894805908, -1.072509765625, -0.182373046875, -0.25927734375, 0, 
131, 204754904, 0.12465023994445801, 0.641538143157959, -0.22608552873134613, 0.7223412394523621, 0.9999999403953552, -0.00032514147460460663, 0.00003538932651281357, 0.00003608968108892441, 0.08042532205581665, -0.010954499244689941, 0.006166517734527588, 9.65134334564209, -1.3152408599853516, 0.7399172186851501, -4.471195697784424, 0.4866577088832855, 0.4962886571884155, -1.074462890625, -0.18310546875, -0.259765625, 0, 
132, 204763237, 0.12485568970441818, 0.641463041305542, -0.2263423502445221, 0.7222920060157776, 0.9999999403953552, -0.00033581629395484924, 0.00004065316170454025, 0.000028838403522968292, 0.08017975091934204, -0.010987579822540283, 0.005889952182769775, 9.621885299682617, -1.3190947771072388, 0.7067690491676331, -4.617990970611572, 0.5590435266494751, 0.39657241106033325, -1.072509765625, -0.180908203125, -0.25537109375, 0, 
133, 204771570, 0.12514716386795044, 0.6414272785186768, -0.2265675663948059, 0.722202479839325, 0.9999999403953552, -0.00033940933644771576, 0.00003924686461687088, 0.00003073830157518387, 0.08048313856124878, -0.011046290397644043, 0.005736410617828369, 9.658293724060059, -1.3261451721191406, 0.6883248090744019, -4.667400360107422, 0.5397046804428101, 0.4226989150047302, -1.075927734375, -0.18359375, -0.25732421875, 0, 
134, 204779903, 0.12537674605846405, 0.641334593296051, -0.2268224060535431, 0.7221649289131165, 0.9999999403953552, -0.0003492683172225952, 0.00006660539656877518, 0.000015855766832828522, 0.08029133081436157, -0.011446714401245117, 0.005593359470367432, 9.635282516479492, -1.3740249872207642, 0.6713823676109314, -4.802977085113525, 0.9159266948699951, 0.21804118156433105, -1.075927734375, -0.18115234375, -0.25830078125, 0, 
135, 204788236, 0.12564724683761597, 0.6413009166717529, -0.22698380053043365, 0.7220971584320068, 0.9999999403953552, -0.0003566388040781021, 0.00006782356649637222, 0.0000029848888516426086, 0.08034706115722656, -0.011681675910949707, 0.005456268787384033, 9.641988754272461, -1.4020944833755493, 0.6549176573753357, -4.904332160949707, 0.9326783418655396, 0.041046809405088425, -1.072998046875, -0.183837890625, -0.2587890625, 0, 
136, 204796569, 0.12590326368808746, 0.6412049531936646, -0.2272111028432846, 0.7220662832260132, 0.9999999403953552, -0.00034491345286369324, 0.00008262600749731064, -0.000019088387489318848, 0.08011186122894287, -0.011984407901763916, 0.005271613597869873, 9.61378288269043, -1.4382193088531494, 0.6329007744789124, -4.743090629577637, 1.1362347602844238, -0.26249465346336365, -1.073974609375, -0.182861328125, -0.25537109375, 0, 
137, 204804902, 0.12625204026699066, 0.6411418914794922, -0.22736839950084686, 0.722011923789978, 0.9999999403953552, -0.00033598579466342926, 0.00010378938168287277, -0.000041950494050979614, 0.08014601469039917, -0.011772572994232178, 0.005325138568878174, 9.617898941040039, -1.412585735321045, 0.6395397782325745, -4.620321750640869, 1.427263617515564, -0.5768837928771973, -1.074951171875, -0.18212890625, -0.26123046875, 0, 
138, 204813235, 0.12652799487113953, 0.6410403847694397, -0.22756114602088928, 0.7219930291175842, 0.9999999403953552, -0.000330975279211998, 0.00010333489626646042, -0.00005279853940010071, 0.07984817028045654, -0.012161612510681152, 0.005404233932495117, 9.582172393798828, -1.4591695070266724, 0.6490254402160645, -4.551419258117676, 1.4210137128829956, -0.7260610461235046, -1.073486328125, -0.18359375, -0.25927734375, 0, 
139, 204821568, 0.1268843412399292, 0.640981137752533, -0.2276836633682251, 0.7219443321228027, 0.9999999403953552, -0.00032561831176280975, 0.00011307094246149063, -0.00007096119225025177, 0.07975971698760986, -0.011989057064056396, 0.005552232265472412, 9.571574211120605, -1.4382996559143066, 0.6668854355812073, -4.477752685546875, 1.5548995733261108, -0.9758256077766418, -1.074462890625, -0.1806640625, -0.2587890625, 0, 
140, 204829901, 0.12716245651245117, 0.6408814787864685, -0.2278665006160736, 0.7219260931015015, 0.9999999403953552, -0.0003247614949941635, 0.00010416563600301743, -0.000060772523283958435, 0.07975465059280396, -0.01154470443725586, 0.004943251609802246, 9.570962905883789, -1.3850334882736206, 0.5937572717666626, -4.465970039367676, 1.4324378967285156, -0.8357157111167908, -1.072509765625, -0.181396484375, -0.2568359375, 0, 
141, 204838234, 0.12749508023262024, 0.6408237814903259, -0.22801442444324493, 0.7218721508979797, 0.9999999403953552, -0.00033769384026527405, 0.00010102707892656326, -0.000039948150515556335, 0.07998782396316528, -0.011302411556243896, 0.005216062068939209, 9.598913192749023, -1.3561805486679077, 0.6264371871948242, -4.643809795379639, 1.3892778158187866, -0.5493485331535339, -1.072998046875, -0.18408203125, -0.259765625, 0, 
142, 204846567, 0.12775781750679016, 0.6407134532928467, -0.22824880480766296, 0.7218495607376099, 0.9999999403953552, -0.00035431981086730957, 0.00009895116090774536, -0.000014476478099822998, 0.08031243085861206, -0.011103153228759766, 0.004969358444213867, 9.637833595275879, -1.3325109481811523, 0.5968762636184692, -4.872442245483398, 1.360730767250061, -0.19907383620738983, -1.077392578125, -0.181640625, -0.259765625, 0, 
143, 204854900, 0.12805140018463135, 0.6406413912773132, -0.22843977808952332, 0.7218009829521179, 0.9999999403953552, -0.0003398135304450989, 0.00010054465383291245, 0.000020730309188365936, 0.0805242657661438, -0.011169373989105225, 0.004976928234100342, 9.663213729858398, -1.3407599925994873, 0.5977434515953064, -4.672958850860596, 1.382643699645996, 0.2850736379623413, -1.073486328125, -0.18017578125, -0.26025390625, 0, 
144, 204863233, 0.128286674618721, 0.6405037045478821, -0.22870740294456482, 0.7217966318130493, 0.9999999403953552, -0.0003600437194108963, 0.00011979881674051285, 0.00003541354089975357, 0.08054769039154053, -0.01146763563156128, 0.00504148006439209, 9.665985107421875, -1.3767459392547607, 0.6056813597679138, -4.951154708862305, 1.6474179029464722, 0.48699063062667847, -1.075927734375, -0.18359375, -0.263671875, 0, 
145, 204871566, 0.12860508263111115, 0.640397310256958, -0.22893252968788147, 0.7217631340026855, 0.9999999403953552, -0.0003556348383426666, 0.00013272929936647415, 0.00003780703991651535, 0.08057260513305664, -0.011633098125457764, 0.005217611789703369, 9.668959617614746, -1.3966302871704102, 0.6269440054893494, -4.890525817871094, 1.825231909751892, 0.5199049115180969, -1.074462890625, -0.18115234375, -0.26123046875, 0, 
146, 204879899, 0.12882661819458008, 0.6402552127838135, -0.22917458415031433, 0.7217727899551392, 0.9999999403953552, -0.0003302358090877533, 0.00013230647891759872, 0.00003200862556695938, 0.08068579435348511, -0.011995494365692139, 0.005194127559661865, 9.682562828063965, -1.4399988651275635, 0.6240728497505188, -4.541250228881836, 1.8194177150726318, 0.4401678740978241, -1.073486328125, -0.18212890625, -0.264892578125, 0, 
147, 204888232, 0.12912330031394958, 0.6401624083518982, -0.22936299443244934, 0.7217423319816589, 0.9999999403953552, -0.0003067050129175186, 0.0001240139827132225, 0.000028158538043498993, 0.08046317100524902, -0.01232457160949707, 0.0054138898849487305, 9.655834197998047, -1.4795172214508057, 0.6504970788955688, -4.217665672302246, 1.705383062362671, 0.3872232139110565, -1.07080078125, -0.182373046875, -0.266357421875, 0, 
148, 204896565, 0.1293090134859085, 0.6400493383407593, -0.2295621931552887, 0.721746027469635, 0.9999999403953552, -0.0002738535404205322, 0.00010479148477315903, 0.00002326536923646927, 0.08065658807754517, -0.01247471570968628, 0.0054852962493896484, 9.679069519042969, -1.4974445104599, 0.6588863730430603, -3.7659072875976562, 1.4410439729690552, 0.319934606552124, -1.072509765625, -0.180908203125, -0.26171875, 0, 
149, 204904898, 0.12968963384628296, 0.6399480700492859, -0.2298186719417572, 0.7216860055923462, 0.9999999403953552, -0.00024975091218948364, 0.00009385030716657639, 0.00002141576260328293, 0.08111029863357544, -0.012723267078399658, 0.0049582719802856445, 9.733551025390625, -1.5271503925323486, 0.5954589247703552, -3.4344587326049805, 1.290585994720459, 0.29449963569641113, -1.076416015625, -0.18603515625, -0.2626953125, 0, 
150, 204913231, 0.12983661890029907, 0.639836847782135, -0.22999203205108643, 0.7217029929161072, 0.9999999403953552, -0.00022713467478752136, 0.0001064743846654892, 0.00003614835441112518, 0.08161211013793945, -0.012794971466064453, 0.004739165306091309, 9.793736457824707, -1.5359065532684326, 0.5693665146827698, -3.123450994491577, 1.4641865491867065, 0.4970954656600952, -1.072509765625, -0.18359375, -0.2626953125, 0, 
151, 204921564, 0.13000789284706116, 0.6397538185119629, -0.2300872653722763, 0.7217152118682861, 0.9999999403953552, -0.00021243467926979065, 0.00013949815183877945, 0.00005573499947786331, 0.08156841993331909, -0.012575387954711914, 0.004847049713134766, 9.78845500946045, -1.5096962451934814, 0.5825891494750977, -2.9213032722473145, 1.918313980102539, 0.7664418816566467, -1.074462890625, -0.18212890625, -0.2626953125, 0, 
152, 204929897, 0.13012005388736725, 0.6396023631095886, -0.23024865984916687, 0.7217777967453003, 0.9999999403953552, -0.0001904703676700592, 0.00015821494162082672, 0.00006899610161781311, 0.08104658126831055, -0.012452006340026855, 0.005444705486297607, 9.725791931152344, -1.4950182437896729, 0.6545220613479614, -2.619260787963867, 2.17569899559021, 0.9488025307655334, -1.072998046875, -0.18310546875, -0.26171875, 0, 
153, 204938230, 0.1302568018436432, 0.6395004987716675, -0.23031581938266754, 0.7218220233917236, 1, -0.00016019493341445923, 0.00016994494944810867, 0.00007028225809335709, 0.0804644227027893, -0.01230931282043457, 0.005816996097564697, 9.655893325805664, -1.477968454360962, 0.6994747519493103, -2.2029266357421875, 2.3370044231414795, 0.9664891958236694, -1.073974609375, -0.18359375, -0.265869140625, 0, 
154, 204946563, 0.13032206892967224, 0.6393621563911438, -0.2304314225912094, 0.7218958735466003, 1, -0.00012342818081378937, 0.00015120115131139755, 0.00007231812924146652, 0.07993179559707642, -0.012109458446502686, 0.005658984184265137, 9.592055320739746, -1.4537279605865479, 0.6799794435501099, -1.6973273754119873, 2.0792484283447266, 0.9944855570793152, -1.07470703125, -0.1806640625, -0.266845703125, 0, 
155, 204954896, 0.13044671714305878, 0.6392829418182373, -0.2304832488298416, 0.7219271063804626, 1, -0.00009648874402046204, 0.00013647321611642838, 0.00006495509296655655, 0.07971316576004028, -0.012222826480865479, 0.005584895610809326, 9.565789222717285, -1.4674333333969116, 0.671293318271637, -1.3268685340881348, 1.8767168521881104, 0.8932323455810547, -1.072509765625, -0.18603515625, -0.266357421875, 0, 
156, 204963229, 0.130471333861351, 0.6391790509223938, -0.2305612862110138, 0.7219897508621216, 1, -0.0000684596598148346, 0.00011481251567602158, 0.00006848853081464767, 0.0795096755027771, -0.01236504316329956, 0.005493104457855225, 9.541308403015137, -1.4847872257232666, 0.6605120301246643, -0.9414255619049072, 1.5788486003875732, 0.9418225884437561, -1.074951171875, -0.1826171875, -0.266845703125, 0, 
157, 204971562, 0.130529522895813, 0.6391401290893555, -0.2305544763803482, 0.7220158576965332, 1, -0.000040549784898757935, 0.0001019677147269249, 0.00006222818046808243, 0.07982540130615234, -0.012474417686462402, 0.005494296550750732, 9.579130172729492, -1.4981564283370972, 0.6610573530197144, -0.5576218962669373, 1.4022127389907837, 0.8557330965995789, -1.072509765625, -0.1796875, -0.264892578125, 0, 
158, 204979895, 0.13050788640975952, 0.639067530632019, -0.2305779606103897, 0.7220765352249146, 1, 0.000004137866199016571, 0.00008747633546590805, 0.00005982164293527603, 0.07997173070907593, -0.012798428535461426, 0.005091071128845215, 9.596990585327148, -1.5358726978302002, 0.6109529137611389, 0.056902021169662476, 1.2029341459274292, 0.8226395845413208, -1.072509765625, -0.18310546875, -0.265869140625, 0, 
159, 204988228, 0.13052421808242798, 0.6390475034713745, -0.230538010597229, 0.722104012966156, 1, 0.000019091181457042694, 0.00008295197039842606, 0.00006661470979452133, 0.08018559217453003, -0.012746274471282959, 0.0048944950103759766, 9.622654914855957, -1.529613971710205, 0.5873628258705139, 0.2625330686569214, 1.1407170295715332, 0.9160546064376831, -1.072265625, -0.18115234375, -0.266357421875, 0, 
160, 204996561, 0.1304773986339569, 0.6389902830123901, -0.2305295765399933, 0.7221658825874329, 1, 0.000045408494770526886, 0.00007567275315523148, 0.00005446095019578934, 0.08042651414871216, -0.012763559818267822, 0.004986226558685303, 9.651567459106445, -1.5316885709762573, 0.5983709692955017, 0.624436616897583, 1.0406166315078735, 0.7489217519760132, -1.072265625, -0.18017578125, -0.268310546875, 0, 
161, 205004894, 0.13046717643737793, 0.6389853954315186, -0.23045846819877625, 0.7221945524215698, 1, 0.000060603953897953033, 0.00007174257189035416, 0.00006090756505727768, 0.08032596111297607, -0.012286961078643799, 0.005239129066467285, 9.639498710632324, -1.4744939804077148, 0.6287207007408142, 0.8333975672721863, 0.9865706562995911, 0.8375726342201233, -1.075439453125, -0.181640625, -0.266357421875, 0, 
162, 205013227, 0.13038940727710724, 0.6389279365539551, -0.230436310172081, 0.7222664952278137, 1, 0.00007743667811155319, 0.00007695425301790237, 0.0000696154311299324, 0.08011412620544434, -0.012179315090179443, 0.005008995532989502, 9.613815307617188, -1.462683081626892, 0.602620005607605, 1.0648733377456665, 1.0582393407821655, 0.9573192000389099, -1.073486328125, -0.1826171875, -0.263671875, 0, 
163, 205021560, 0.13035725057125092, 0.6389220356941223, -0.23037032783031464, 0.7222986817359924, 1, 0.00008659530431032181, 0.00006754416972398758, 0.00008122343569993973, 0.07989728450775146, -0.012201845645904541, 0.005082309246063232, 9.587800979614258, -1.4654390811920166, 0.6111388206481934, 1.1908186674118042, 0.9288361668586731, 1.1169471740722656, -1.0732421875, -0.1826171875, -0.267333984375, 0, 
164, 205029893, 0.13024644553661346, 0.6388775706291199, -0.23035013675689697, 0.7223644256591797, 1, 0.0000975215807557106, 0.00005586910992860794, 0.00009114574640989304, 0.07962268590927124, -0.012014389038085938, 0.005296111106872559, 9.554866790771484, -1.4429354667663574, 0.6365187764167786, 1.3410717248916626, 0.7682861685752869, 1.2533941268920898, -1.072265625, -0.1796875, -0.267333984375, 0, 
165, 205038226, 0.13017214834690094, 0.6388872861862183, -0.23027445375919342, 0.722393274307251, 1, 0.00010481197386980057, 0.000049493275582790375, 0.0000996878370642662, 0.07933467626571655, -0.01177912950515747, 0.00537186861038208, 9.520320892333984, -1.4146760702133179, 0.6454395651817322, 1.4413259029388428, 0.6806087493896484, 1.370861291885376, -1.072509765625, -0.18359375, -0.264892578125, 0, 
166, 205046559, 0.13004109263420105, 0.6388497352600098, -0.2302556186914444, 0.7224560379981995, 1, 0.00010962504893541336, 0.000044257380068302155, 0.0001048920676112175, 0.07913792133331299, -0.011633634567260742, 0.0052315592765808105, 9.496722221374512, -1.39719820022583, 0.6284964084625244, 1.5075129270553589, 0.6086069941520691, 1.442427158355713, -1.07470703125, -0.17919921875, -0.265380859375, 0, 
167, 205054892, 0.12990474700927734, 0.6388853192329407, -0.2301386594772339, 0.7224865555763245, 1, 0.00011665653437376022, 0.00003401655703783035, 0.0001076655462384224, 0.0790223479270935, -0.01189279556274414, 0.005326271057128906, 9.48286247253418, -1.4282625913619995, 0.6397311687469482, 1.6042066812515259, 0.4677799642086029, 1.4805667400360107, -1.0751953125, -0.1787109375, -0.267822265625, 0, 
168, 205063225, 0.1297622174024582, 0.638866662979126, -0.2301032543182373, 0.7225399613380432, 1, 0.00012922938913106918, 0.00002421904355287552, 0.00009735580533742905, 0.07908475399017334, -0.011811912059783936, 0.005047142505645752, 9.490379333496094, -1.4184279441833496, 0.6061410307884216, 1.7771029472351074, 0.33304908871650696, 1.338792085647583, -1.07568359375, -0.1806640625, -0.267333984375, 0, 
169, 205071558, 0.12969966232776642, 0.638892412185669, -0.230014830827713, 0.7225565314292908, 1, 0.00016042869538068771, 0.000026064924895763397, 0.00008236151188611984, 0.07949906587600708, -0.012178659439086914, 0.00540083646774292, 9.540145874023438, -1.4621094465255737, 0.6485600471496582, 2.206141233444214, 0.358432799577713, 1.1325974464416504, -1.073486328125, -0.18212890625, -0.265380859375, 0, 
170, 205079891, 0.12954440712928772, 0.6388922333717346, -0.22991803288459778, 0.7226153612136841, 1, 0.0001852298155426979, 0.00001955311745405197, 0.00006391201168298721, 0.07979792356491089, -0.01240837574005127, 0.005315124988555908, 9.5760498046875, -1.4894441366195679, 0.6381964087486267, 2.5471949577331543, 0.26888543367385864, 0.8788885474205017, -1.072265625, -0.1826171875, -0.267333984375, 0, 
171, 205088224, 0.1294347494840622, 0.6389485597610474, -0.22972385585308075, 0.7226468920707703, 1, 0.0002230750396847725, 0.000025945715606212616, 0.00003957469016313553, 0.08002108335494995, -0.012561261653900146, 0.005428493022918701, 9.602826118469238, -1.5076806545257568, 0.6521161198616028, 3.067624807357788, 0.35679349303245544, 0.5442128777503967, -1.073974609375, -0.1806640625, -0.264892578125, 0, 
172, 205096557, 0.12926627695560455, 0.6389616131782532, -0.2295459806919098, 0.722722053527832, 0.9999999403953552, 0.0002579865977168083, 0.00002801511436700821, 0.000021020881831645966, 0.08029890060424805, -0.01237267255783081, 0.005429327487945557, 9.636208534240723, -1.4848099946975708, 0.6521195769309998, 3.547712802886963, 0.38525092601776123, 0.2890694737434387, -1.074951171875, -0.18115234375, -0.265869140625, 0, 
173, 205104890, 0.12911435961723328, 0.6390348672866821, -0.22927658259868622, 0.7227698564529419, 0.9999999403953552, 0.00029078032821416855, 0.000027797184884548187, 0.000018174760043621063, 0.08025521039962769, -0.012278556823730469, 0.005334913730621338, 9.630964279174805, -1.4734739065170288, 0.6409419178962708, 3.9986767768859863, 0.382254034280777, 0.24993090331554413, -1.07275390625, -0.1826171875, -0.266845703125, 0, 
174, 205113223, 0.12890690565109253, 0.6390548348426819, -0.22904856503009796, 0.7228615283966064, 0.9999999403953552, 0.00032372307032346725, 0.00003124680370092392, 0.000017871148884296417, 0.08017629384994507, -0.012382268905639648, 0.0052828192710876465, 9.621487617492676, -1.4858942031860352, 0.6348419785499573, 4.451689720153809, 0.4296916425228119, 0.24575576186180115, -1.07080078125, -0.180419921875, -0.265380859375, 0, 
175, 205121556, 0.12879370152950287, 0.6391189694404602, -0.22879835963249207, 0.7229043841362, 0.9999999403953552, 0.0003502247855067253, 0.000021350570023059845, 0.000011690892279148102, 0.08028906583786011, -0.012050390243530273, 0.005394697189331055, 9.63504409790039, -1.4459940195083618, 0.6480783224105835, 4.816129684448242, 0.29360318183898926, 0.16076774895191193, -1.07080078125, -0.181396484375, -0.267333984375, 0, 
176, 205129889, 0.12856189906597137, 0.6391650438308716, -0.22853179275989532, 0.7229892015457153, 0.9999999403953552, 0.0003688214346766472, 0.0000075018033385276794, 0.000004132278263568878, 0.0802774429321289, -0.011806845664978027, 0.0055634379386901855, 9.633665084838867, -1.4166518449783325, 0.668290376663208, 5.071861267089844, 0.10316132754087448, 0.056825172156095505, -1.073974609375, -0.1845703125, -0.26220703125, 0, 
177, 205138222, 0.1284003108739853, 0.6392567157745361, -0.2282136231660843, 0.7230373024940491, 0.9999999403953552, 0.00037857983261346817, 0.000012618489563465118, -0.000006984919309616089, 0.08020830154418945, -0.01155388355255127, 0.005363523960113525, 9.625383377075195, -1.3861985206604004, 0.6443195343017578, 5.2060546875, 0.17352363467216492, -0.09605337679386139, -1.072265625, -0.181640625, -0.266357421875, 0, 
178, 205146555, 0.12817180156707764, 0.6393038034439087, -0.22791455686092377, 0.7231305241584778, 0.9999999403953552, 0.000392385758459568, 0.000017204321920871735, -0.000017853453755378723, 0.08012288808822632, -0.011330485343933105, 0.0052245259284973145, 9.615143775939941, -1.3593100309371948, 0.6276419758796692, 5.395906925201416, 0.23658591508865356, -0.245512455701828, -1.074462890625, -0.18408203125, -0.26123046875, 0, 
179, 205154888, 0.128031387925148, 0.639392614364624, -0.2275925576686859, 0.7231782674789429, 0.9999999403953552, 0.0004077339544892311, 0.000013475306332111359, -0.00002031773328781128, 0.08026087284088135, -0.011179506778717041, 0.0055754780769348145, 9.631709098815918, -1.3410922288894653, 0.6698094606399536, 5.606968879699707, 0.18530617654323578, -0.279400110244751, -1.073486328125, -0.18212890625, -0.265380859375, 0, 
180, 205163221, 0.12777888774871826, 0.639441728591919, -0.2272775024175644, 0.7232786417007446, 0.9999999403953552, 0.0004213200882077217, 0.000017062760889530182, -0.000009981915354728699, 0.08045393228530884, -0.010909736156463623, 0.00514984130859375, 9.654860496520996, -1.3088618516921997, 0.618725597858429, 5.793799877166748, 0.2346392273902893, -0.13726668059825897, -1.076416015625, -0.181640625, -0.26416015625, 0, 
181, 205171554, 0.1275791972875595, 0.6395374536514282, -0.2269156575202942, 0.723342776298523, 0.9999998807907104, 0.0004358561709523201, 0.000018530525267124176, -0.000004537403583526611, 0.08068639039993286, -0.010741353034973145, 0.005181312561035156, 9.682748794555664, -1.2887176275253296, 0.6224786043167114, 5.993691921234131, 0.2548232078552246, -0.062396273016929626, -1.071533203125, -0.1845703125, -0.265380859375, 0, 
182, 205179887, 0.12729762494564056, 0.6395774483680725, -0.22660134732723236, 0.723455548286438, 0.9999998807907104, 0.0004412056878209114, 0.000025010667741298676, 0.00001544039696455002, 0.08082348108291626, -0.010753989219665527, 0.005164086818695068, 9.69916820526123, -1.290398120880127, 0.6205814480781555, 6.067256450653076, 0.34393513202667236, 0.2123292088508606, -1.073974609375, -0.181640625, -0.264892578125, 0, 
183, 205188220, 0.12705403566360474, 0.6396636366844177, -0.22622910141944885, 0.7235387563705444, 0.9999998807907104, 0.00045329611748456955, 0.000033517368137836456, 0.000025321729481220245, 0.08098846673965454, -0.010847628116607666, 0.005208432674407959, 9.718949317932129, -1.301729679107666, 0.6259587407112122, 6.233519077301025, 0.46091535687446594, 0.34821274876594543, -1.072509765625, -0.18310546875, -0.265869140625, 0, 
184, 205196553, 0.12675239145755768, 0.639683187007904, -0.22590859234333038, 0.723674476146698, 0.9999998807907104, 0.00046120118349790573, 0.00005078595131635666, 0.000033807940781116486, 0.08102703094482422, -0.011078238487243652, 0.005343496799468994, 9.723557472229004, -1.3294734954833984, 0.6423122882843018, 6.342225074768066, 0.6983848214149475, 0.4649111330509186, -1.072021484375, -0.18310546875, -0.264892578125, 0, 
185, 205204886, 0.12651975452899933, 0.6397452354431152, -0.2255384773015976, 0.7237758636474609, 0.9999998807907104, 0.00047575030475854874, 0.00006089452654123306, 0.00003106985241174698, 0.08100491762161255, -0.011248290538787842, 0.005558311939239502, 9.720892906188965, -1.3498328924179077, 0.6682978272438049, 6.542297840118408, 0.8373933434486389, 0.4272582232952118, -1.072021484375, -0.181396484375, -0.263916015625, 0, 
186, 205213219, 0.1261950582265854, 0.639758288860321, -0.22518858313560486, 0.7239300012588501, 0.9999998807907104, 0.0005005868151783943, 0.00006607454270124435, 0.00003562029451131821, 0.08069485425949097, -0.011423826217651367, 0.005528509616851807, 9.683672904968262, -1.370926856994629, 0.6648358106613159, 6.883838176727295, 0.9086264967918396, 0.4898337423801422, -1.075439453125, -0.18798828125, -0.259765625, 0, 
187, 205221552, 0.12596188485622406, 0.6398109197616577, -0.2247953712940216, 0.7240462303161621, 0.9999998211860657, 0.0005486169829964638, 0.0000716550275683403, 0.000026450492441654205, 0.08055615425109863, -0.0114058256149292, 0.0055648088455200195, 9.66704273223877, -1.3686460256576538, 0.669205904006958, 7.544327259063721, 0.9853668808937073, 0.36373499035835266, -1.072021484375, -0.185791015625, -0.26025390625, 0, 
188, 205229885, 0.12559814751148224, 0.6398398876190186, -0.22436298429965973, 0.72421795129776, 0.9999998211860657, 0.0005913237109780312, 0.00006754044443368912, 0.00001007039099931717, 0.08042573928833008, -0.011736273765563965, 0.005524098873138428, 9.651415824890137, -1.4081109762191772, 0.6644167900085449, 8.131608963012695, 0.9287849068641663, 0.13848336040973663, -1.073974609375, -0.185546875, -0.26318359375, 0, 
189, 205238218, 0.1252317726612091, 0.6399499773979187, -0.22380508482456207, 0.7243564128875732, 0.9999998211860657, 0.0006213439628481865, 0.00005985517054796219, -0.0000033993273973464966, 0.07997995615005493, -0.011707961559295654, 0.005834639072418213, 9.597940444946289, -1.4045460224151611, 0.7016237378120422, 8.544435501098633, 0.8231006860733032, -0.04674598202109337, -1.072998046875, -0.18505859375, -0.263671875, 0, 
190, 205246551, 0.12483583390712738, 0.6399967074394226, -0.2232932448387146, 0.7245413661003113, 0.9999997615814209, 0.000674782320857048, 0.00006597302854061127, -0.000019572675228118896, 0.07987374067306519, -0.01174229383468628, 0.0056285858154296875, 9.58521556854248, -1.408506155014038, 0.676995575428009, 9.279294967651367, 0.9072306752204895, -0.2691543996334076, -1.073486328125, -0.185546875, -0.259765625, 0, 
191, 205254884, 0.12449455261230469, 0.6401152014732361, -0.2226918637752533, 0.7246806621551514, 0.9999997615814209, 0.000714336521923542, 0.000052941031754016876, -0.00004455447196960449, 0.07955336570739746, -0.011512577533721924, 0.006110429763793945, 9.546807289123535, -1.380630373954773, 0.7347484230995178, 9.823225021362305, 0.7280206084251404, -0.6126925349235535, -1.075439453125, -0.1875, -0.26220703125, 0, 
192, 205263217, 0.1240701824426651, 0.6401980519294739, -0.2221037596464157, 0.7248607277870178, 0.9999997019767761, 0.0007514478638768196, 0.00004026200622320175, -0.00005618296563625336, 0.0791698694229126, -0.011594951152801514, 0.006146550178527832, 9.500811576843262, -1.3903673887252808, 0.7390351891517639, 10.333564758300781, 0.5536645650863647, -0.7726022601127625, -1.072509765625, -0.1845703125, -0.26220703125, 0, 
193, 205271550, 0.12366145104169846, 0.6403666734695435, -0.2214035987854004, 0.7249957919120789, 0.9999997019767761, 0.0007970565930008888, 0.00001735147088766098, -0.00007348507642745972, 0.0791480541229248, -0.01128607988357544, 0.006033062934875488, 9.498235702514648, -1.3530791997909546, 0.7252689003944397, 10.96075439453125, 0.2386094629764557, -1.0105329751968384, -1.072998046875, -0.1884765625, -0.2607421875, 0, 
194, 205279883, 0.12318015843629837, 0.6404946446418762, -0.22075244784355164, 0.7251632213592529, 0.9999996423721313, 0.0008364720270037651, -0.000005256384611129761, -0.0000665951520204544, 0.07912319898605347, -0.011096417903900146, 0.0060076117515563965, 9.495256423950195, -1.3303682804107666, 0.7220227122306824, 11.502778053283691, -0.07228337228298187, -0.9157857894897461, -1.069580078125, -0.189208984375, -0.2607421875, 0, 
195, 205288216, 0.1226893812417984, 0.6407065987586975, -0.21999233961105347, 0.7252901196479797, 0.9999996423721313, 0.0008742595091462135, -0.00002629123628139496, -0.00006446987390518188, 0.07923030853271484, -0.010893940925598145, 0.006544828414916992, 9.508122444152832, -1.3060154914855957, 0.7863098978996277, 12.022415161132812, -0.36154502630233765, -0.8865600824356079, -1.074462890625, -0.185546875, -0.25732421875, 0, 
196, 205296549, 0.12215043604373932, 0.6408711075782776, -0.21929435431957245, 0.7254470586776733, 0.9999995827674866, 0.0009093405678868294, -0.0000451505184173584, -0.00006400607526302338, 0.0794517993927002, -0.010833203792572021, 0.006042897701263428, 9.534711837768555, -1.2987643480300903, 0.725929319858551, 12.50483226776123, -0.6208891272544861, -0.8801819682121277, -1.073486328125, -0.1865234375, -0.25927734375, 0, 
197, 205304882, 0.12154026329517365, 0.6411218047142029, -0.21845179796218872, 0.7255823612213135, 0.9999995231628418, 0.0009507415816187859, -0.00005459412932395935, -0.00004277937114238739, 0.07980614900588989, -0.010727941989898682, 0.006104171276092529, 9.577213287353516, -1.28631591796875, 0.73321932554245, 13.0741605758667, -0.7507533431053162, -0.5882822275161743, -1.072509765625, -0.19140625, -0.25830078125, 0, 
198, 205313215, 0.12092261016368866, 0.6413067579269409, -0.21770119667053223, 0.7257477641105652, 0.9999995231628418, 0.001002257689833641, -0.00006517022848129272, -0.00004378706216812134, 0.0799105167388916, -0.010817229747772217, 0.006285488605499268, 9.589751243591309, -1.2969402074813843, 0.7549663186073303, 13.782587051391602, -0.8961909413337708, -0.6021395325660706, -1.073974609375, -0.18896484375, -0.25537109375, 0, 
199, 205321548, 0.12032763659954071, 0.6415681838989258, -0.216849684715271, 0.7258704900741577, 0.9999994039535522, 0.0010655112564563751, -0.000085439532995224, -0.000052187591791152954, 0.07946306467056274, -0.010999441146850586, 0.006523251533508301, 9.53608226776123, -1.3186687231063843, 0.7834060192108154, 14.652419090270996, -1.1749249696731567, -0.7176596522331238, -1.070068359375, -0.190185546875, -0.25732421875, 0, 
200, 205329881, 0.11965910345315933, 0.641817569732666, -0.21600183844566345, 0.7260133624076843, 0.9999994039535522, 0.001108165830373764, -0.00012543238699436188, -0.00008571147918701172, 0.07919281721115112, -0.011378049850463867, 0.00699305534362793, 9.503739356994629, -1.3636751174926758, 0.8395208716392517, 15.23898696899414, -1.724888563156128, -1.1786648035049438, -1.068115234375, -0.191162109375, -0.25537109375, 0, 
201, 205338214, 0.11905554682016373, 0.6421565413475037, -0.2150699943304062, 0.726089358329773, 0.9999993443489075, 0.001152574084699154, -0.0001682024449110031, -0.00011690333485603333, 0.07911449670791626, -0.011637866497039795, 0.006955921649932861, 9.49442195892334, -1.3945269584655762, 0.8347559571266174, 15.849669456481934, -2.313042640686035, -1.6076008081436157, -1.072509765625, -0.1923828125, -0.25732421875, 0, 
202, 205346547, 0.11836472898721695, 0.6424728035926819, -0.21414406597614288, 0.7261961698532104, 0.9999992847442627, 0.001179252751171589, -0.00019237585365772247, -0.0001381468027830124, 0.07926982641220093, -0.01115494966506958, 0.006568610668182373, 9.51309871673584, -1.336382508277893, 0.7880101203918457, 16.216543197631836, -2.6454644203186035, -1.8997315168380737, -1.072998046875, -0.18994140625, -0.25439453125, 0, 
203, 205354880, 0.1177041083574295, 0.6428627967834473, -0.21312952041625977, 0.7262569665908813, 0.9999992847442627, 0.0011923694983124733, -0.00020867958664894104, -0.0001465044915676117, 0.07961440086364746, -0.01033550500869751, 0.006308376789093018, 9.554450035095215, -1.2380026578903198, 0.7565184831619263, 16.396915435791016, -2.8696656227111816, -2.014662265777588, -1.071044921875, -0.190673828125, -0.2529296875, 0, 
204, 205363213, 0.11701661348342896, 0.6431857347488403, -0.2122027575969696, 0.7263535261154175, 0.9999992847442627, 0.001176455058157444, -0.00020287372171878815, -0.00014340132474899292, 0.0799856185913086, -0.00947481393814087, 0.006560027599334717, 9.598983764648438, -1.1346975564956665, 0.7866181135177612, 16.178071975708008, -2.7898266315460205, -1.971989393234253, -1.071044921875, -0.192626953125, -0.25146484375, 0, 
205, 205371546, 0.11639180779457092, 0.6435409188270569, -0.21125933527946472, 0.7264142036437988, 0.9999993443489075, 0.0011488273739814758, -0.00019022077322006226, -0.00011562742292881012, 0.08005297183990479, -0.00880664587020874, 0.006123363971710205, 9.607002258300781, -1.0548826456069946, 0.734218180179596, 15.79814624786377, -2.6158287525177, -1.590055227279663, -1.07373046875, -0.1953125, -0.24951171875, 0, 
206, 205379879, 0.11570203304290771, 0.6438270211219788, -0.21040566265583038, 0.7265185713768005, 0.9999993443489075, 0.00112224742770195, -0.00017979275435209274, -0.0000856863334774971, 0.0801880955696106, -0.008251965045928955, 0.006329596042633057, 9.62317943572998, -0.988582968711853, 0.7589566707611084, 15.432629585266113, -2.4724273681640625, -1.1783190965652466, -1.075439453125, -0.19482421875, -0.25, 0, 
207, 205388212, 0.11504120379686356, 0.6441687941551208, -0.20947252213954926, 0.7265902757644653, 0.9999994039535522, 0.0011033602058887482, -0.0001724977046251297, -0.0000808369368314743, 0.08056640625, -0.007738888263702393, 0.006460905075073242, 9.668563842773438, -0.9270694255828857, 0.7746968865394592, 15.17290210723877, -2.3721091747283936, -1.1116323471069336, -1.07275390625, -0.191162109375, -0.2470703125, 0, 
208, 205396545, 0.11440113931894302, 0.644426703453064, -0.20866447687149048, 0.7266952991485596, 0.9999994039535522, 0.0010538659989833832, -0.00015349406749010086, -0.00008628983050584793, 0.08067786693572998, -0.0075193047523498535, 0.0068266987800598145, 9.68193244934082, -0.9006677269935608, 0.818705141544342, 14.492278099060059, -2.1107795238494873, -1.1866179704666138, -1.076171875, -0.193359375, -0.2490234375, 0, 
209, 205404878, 0.11381707340478897, 0.6447146534919739, -0.2077426314353943, 0.7267957329750061, 0.999999463558197, 0.001015305519104004, -0.00009559746831655502, -0.00011274125427007675, 0.08077716827392578, -0.007280707359313965, 0.00676572322845459, 9.693821907043457, -0.8718201518058777, 0.8118793368339539, 13.962017059326172, -1.3146125078201294, -1.5503660440444946, -1.0712890625, -0.192626953125, -0.24462890625, 0, 
210, 205413211, 0.1132800430059433, 0.6449036002159119, -0.20693744719028473, 0.7269417643547058, 0.9999995231628418, 0.0009859874844551086, -0.0000554816797375679, -0.00013998430222272873, 0.08084696531295776, -0.006877243518829346, 0.00695115327835083, 9.702183723449707, -0.823146402835846, 0.834443211555481, 13.558846473693848, -0.7629585862159729, -1.9249998331069946, -1.07177734375, -0.194580078125, -0.24658203125, 0, 
211, 205421544, 0.11279972642660141, 0.6451514959335327, -0.2060447782278061, 0.7270498871803284, 0.9999995231628418, 0.0009931959211826324, -0.00005499552935361862, -0.00014914106577634811, 0.08103108406066895, -0.006936311721801758, 0.0069449543952941895, 9.724287986755371, -0.8301090598106384, 0.8337193727493286, 13.657973289489746, -0.7562732100486755, -2.0509192943573, -1.07421875, -0.197265625, -0.24609375, 0, 
212, 205429877, 0.11223260313272476, 0.6453530192375183, -0.20521433651447296, 0.7271935939788818, 0.999999463558197, 0.001024523749947548, -0.00006923824548721313, -0.00013695470988750458, 0.08160287141799927, -0.007658839225769043, 0.006509065628051758, 9.792915344238281, -0.9169566035270691, 0.7813817858695984, 14.08877944946289, -0.952132523059845, -1.883338212966919, -1.072265625, -0.197509765625, -0.244140625, 0, 
213, 205438210, 0.11170376092195511, 0.6456129550933838, -0.20435373485088348, 0.7272867560386658, 0.9999994039535522, 0.0010760948061943054, -0.00009954255074262619, -0.0000851387158036232, 0.08189606666564941, -0.008591175079345703, 0.006126701831817627, 9.828079223632812, -1.0293720960617065, 0.735362708568573, 14.797962188720703, -1.3688634634017944, -1.1707885265350342, -1.0712890625, -0.197998046875, -0.24267578125, 0, 
214, 205446543, 0.11096516251564026, 0.645836353302002, -0.20353566110134125, 0.7274308800697327, 0.9999993443489075, 0.0011286381632089615, -0.00012127775698900223, -0.000008429400622844696, 0.08200281858444214, -0.008960962295532227, 0.005459010601043701, 9.840819358825684, -1.0745407342910767, 0.6551272869110107, 15.520513534545898, -1.6677560806274414, -0.11591725051403046, -1.0712890625, -0.196533203125, -0.2421875, 0, 
215, 205454876, 0.11017400771379471, 0.6461392641067505, -0.202633336186409, 0.7275339365005493, 0.9999992847442627, 0.0011828504502773285, -0.0001576421782374382, 0.00006672553718090057, 0.08145463466644287, -0.009737908840179443, 0.005659878253936768, 9.774974822998047, -1.168444275856018, 0.6790536046028137, 16.26601791381836, -2.16782283782959, 0.9175790548324585, -1.07080078125, -0.201416015625, -0.23974609375, 0, 
216, 205463209, 0.10926353931427002, 0.6463886499404907, -0.2018488049507141, 0.7276677489280701, 0.9999992251396179, 0.001216202974319458, -0.0001851385459303856, 0.00013210996985435486, 0.08071964979171753, -0.009977519512176514, 0.005420506000518799, 9.686707496643066, -1.1978354454040527, 0.6501521468162537, 16.72466468811035, -2.5459401607513428, 1.8167154788970947, -1.07177734375, -0.197998046875, -0.23779296875, 0, 
217, 205471542, 0.10828536003828049, 0.6467443108558655, -0.20090201497077942, 0.7277599573135376, 0.9999991655349731, 0.0012598354369401932, -0.0002225888893008232, 0.0001576114445924759, 0.08026444911956787, -0.009901821613311768, 0.005087733268737793, 9.632065773010254, -1.1890183687210083, 0.6099027991294861, 17.324678421020508, -3.0609400272369385, 2.1674001216888428, -1.06982421875, -0.196044921875, -0.23828125, 0, 
218, 205479875, 0.10726911574602127, 0.6470475792884827, -0.20010502636432648, 0.7278603911399841, 0.9999991059303284, 0.0012928023934364319, -0.0002655377611517906, 0.00018697045743465424, 0.07988065481185913, -0.010018646717071533, 0.0049890875816345215, 9.5859956741333, -1.2033108472824097, 0.59771728515625, 17.77802085876465, -3.651553153991699, 2.571131944656372, -1.0712890625, -0.196533203125, -0.23876953125, 0, 
219, 205488208, 0.1063065305352211, 0.6474189758300781, -0.1992580145597458, 0.7279037833213806, 0.9999990463256836, 0.0013204151764512062, -0.00029481202363967896, 0.0002162279561161995, 0.07973140478134155, -0.009766221046447754, 0.0050948262214660645, 9.56807804107666, -1.1732558012008667, 0.6101305484771729, 18.157743453979492, -4.054120063781738, 2.9734678268432617, -1.07373046875, -0.197021484375, -0.236328125, 0, 
220, 205496541, 0.10521800071001053, 0.6477419137954712, -0.19846580922603607, 0.7279911041259766, 0.9999990463256836, 0.0013351403176784515, -0.0003030449151992798, 0.00023762136697769165, 0.07978266477584839, -0.009475290775299072, 0.004933595657348633, 9.574211120605469, -1.1385704278945923, 0.5906682014465332, 18.36023712158203, -4.16733455657959, 3.267659902572632, -1.06982421875, -0.196533203125, -0.23583984375, 0, 
221, 205504874, 0.10413358360528946, 0.6481198072433472, -0.1975438892841339, 0.7280615568161011, 0.9999989867210388, 0.0013591330498456955, -0.0002809511497616768, 0.0002504941076040268, 0.07976764440536499, -0.00938493013381958, 0.005041241645812988, 9.572386741638184, -1.1278188228607178, 0.6038106083869934, 18.690174102783203, -3.863511562347412, 3.4446802139282227, -1.07470703125, -0.197998046875, -0.2333984375, 0, 
222, 205513207, 0.10303415358066559, 0.6483911275863647, -0.19674097001552582, 0.7281938195228577, 0.9999990463256836, 0.0013536754995584488, -0.0002370113506913185, 0.000253899022936821, 0.07954448461532593, -0.008889496326446533, 0.005951941013336182, 9.545616149902344, -1.0682495832443237, 0.7134378552436829, 18.61512565612793, -3.2592716217041016, 3.4915030002593994, -1.076171875, -0.196533203125, -0.23291015625, 0, 
223, 205521540, 0.10208883136510849, 0.6486594080924988, -0.1958739161491394, 0.7283214926719666, 0.9999991059303284, 0.0013180151581764221, -0.0001545669510960579, 0.00022124312818050385, 0.078818678855896, -0.008404195308685303, 0.0067144036293029785, 9.458518981933594, -1.009578824043274, 0.805627703666687, 18.124738693237305, -2.1255338191986084, 3.0424342155456543, -1.07080078125, -0.199462890625, -0.234375, 0, 
224, 205529873, 0.10117131471633911, 0.6488126516342163, -0.19505122303962708, 0.7285338640213013, 0.9999992251396179, 0.0012536533176898956, -0.00006109010428190231, 0.0001402478665113449, 0.07794320583343506, -0.007724463939666748, 0.008131980895996094, 9.353487968444824, -0.9270616769790649, 0.9764726758003235, 17.239665985107422, -0.840083122253418, 1.9286242723464966, -1.06982421875, -0.197021484375, -0.22900390625, 0, 
225, 205538206, 0.10042931139469147, 0.6489850282669067, -0.19407030940055847, 0.7287449836730957, 0.9999992847442627, 0.001191725954413414, 0.00003382936120033264, 0.000022221356630325317, 0.0763670802116394, -0.0063454508781433105, 0.009006500244140625, 9.164361000061035, -0.7603930234909058, 1.0820475816726685, 16.3880672454834, 0.4652058482170105, 0.3055778741836548, -1.07421875, -0.197998046875, -0.23388671875, 0, 
226, 205546539, 0.09974491596221924, 0.649081289768219, -0.19318565726280212, 0.7289882302284241, 0.9999993443489075, 0.0011476650834083557, 0.00005235709249973297, -0.00005518365651369095, 0.07535552978515625, -0.005681157112121582, 0.009820044040679932, 9.043001174926758, -0.6799304485321045, 1.1796966791152954, 15.7821626663208, 0.7199907302856445, -0.7588602900505066, -1.0732421875, -0.198486328125, -0.23046875, 0, 
227, 205554872, 0.09935974329710007, 0.6492058038711548, -0.19239091873168945, 0.7291401624679565, 0.9999994039535522, 0.001109810546040535, 0.00003091990947723389, -0.00008410494774580002, 0.07471334934234619, -0.005678772926330566, 0.00988835096359253, 8.965980529785156, -0.6793884038925171, 1.1876921653747559, 15.261603355407715, 0.4251963198184967, -1.1565724611282349, -1.0732421875, -0.195068359375, -0.22900390625, 0, 
228, 205563205, 0.09874317795038223, 0.6493275165557861, -0.19152793288230896, 0.7293427586555481, 0.9999994039535522, 0.0010826587677001953, 0.000018579885363578796, -0.00009915139526128769, 0.07448244094848633, -0.006493926048278809, 0.009741663932800293, 8.938305854797363, -0.7771321535110474, 1.1700636148452759, 14.888226509094238, 0.2555020749568939, -1.3634846210479736, -1.072265625, -0.198974609375, -0.22900390625, 0, 
229, 205571538, 0.09833795577287674, 0.649492084980011, -0.19069576263427734, 0.7294690012931824, 0.9999994039535522, 0.0010754987597465515, -0.000009014271199703217, -0.00010484736412763596, 0.07348591089248657, -0.007355451583862305, 0.0103340744972229, 8.818765640258789, -0.8804413676261902, 1.2410032749176025, 14.789765357971191, -0.12396012991666794, -1.4418128728866577, -1.073486328125, -0.197021484375, -0.2265625, 0, 
230, 205579871, 0.09772979468107224, 0.6496749520301819, -0.18983152508735657, 0.7296133637428284, 0.9999994039535522, 0.0010734610259532928, -0.00006187707185745239, -0.00012307614088058472, 0.07225042581558228, -0.008848249912261963, 0.010227501392364502, 8.670601844787598, -1.0594658851623535, 1.2279469966888428, 14.761744499206543, -0.8509051203727722, -1.6924867630004883, -1.071044921875, -0.200927734375, -0.22705078125, 0, 
231, 205588204, 0.09721527993679047, 0.6499710083007812, -0.18884120881557465, 0.7296754121780396, 0.9999994039535522, 0.0010751299560070038, -0.0001288391649723053, -0.00017155706882476807, 0.07130169868469238, -0.009898245334625244, 0.0097922682762146, 8.55689811706543, -1.1851282119750977, 1.1752917766571045, 14.784692764282227, -1.771736979484558, -2.3591740131378174, -1.075439453125, -0.200439453125, -0.224609375, 0, 
232, 205596537, 0.09665607661008835, 0.6502896547317505, -0.18787020444869995, 0.7297165393829346, 0.9999993443489075, 0.0011134762316942215, -0.00020824838429689407, -0.00026354845613241196, 0.07032400369644165, -0.010266721248626709, 0.009202063083648682, 8.439767837524414, -1.2286313772201538, 1.1039081811904907, 15.31201171875, -2.8637359142303467, -3.624197006225586, -1.072509765625, -0.201416015625, -0.22705078125, 0, 
233, 205604870, 0.09629425406455994, 0.6507362723350525, -0.18676427006721497, 0.7296499013900757, 0.9999992847442627, 0.0011114384979009628, -0.0002969251945614815, -0.0003939839079976082, 0.07003158330917358, -0.010935485363006592, 0.008018970489501953, 8.40493392944336, -1.307896375656128, 0.9612683057785034, 15.283989906311035, -4.0831780433654785, -5.417884349822998, -1.072509765625, -0.199951171875, -0.22314453125, 0, 
234, 205613203, 0.09591999650001526, 0.6512407064437866, -0.18565408885478973, 0.7295325398445129, 0.9999991655349731, 0.0010829158127307892, -0.0003985641524195671, -0.0005386685952544212, 0.07096177339553833, -0.009980440139770508, 0.00812065601348877, 8.516777992248535, -1.1921015977859497, 0.9724344611167908, 14.891758918762207, -5.480869770050049, -7.407522201538086, -1.071533203125, -0.203857421875, -0.22216796875, 0, 
235, 205621536, 0.09574330598115921, 0.6518294811248779, -0.18443278968334198, 0.729339599609375, 0.9999991059303284, 0.0010621007531881332, -0.00044007692486047745, -0.000645211897790432, 0.07256972789764404, -0.010607004165649414, 0.006741583347320557, 8.709884643554688, -1.2664493322372437, 0.806552529335022, 14.605523109436035, -6.051736354827881, -8.872657775878906, -1.071044921875, -0.203857421875, -0.2216796875, 0, 
236, 205629869, 0.09546082466840744, 0.6524172425270081, -0.1833004206418991, 0.7291367053985596, 0.9999991655349731, 0.0010314099490642548, -0.0004955856129527092, -0.0006432672962546349, 0.07323497533798218, -0.009295761585235596, 0.006247460842132568, 8.78963851928711, -1.1090902090072632, 0.746508002281189, 14.183477401733398, -6.815066337585449, -8.845917701721191, -1.070068359375, -0.205810546875, -0.2177734375, 0, 
237, 205638202, 0.09526457637548447, 0.6530974507331848, -0.18221700191497803, 0.72882479429245, 0.9999991655349731, 0.0009907186031341553, -0.0006070630624890327, -0.0005684690549969673, 0.07499641180038452, -0.007910847663879395, 0.005575060844421387, 9.000870704650879, -0.9435766935348511, 0.6645205020904541, 13.623908996582031, -8.348052978515625, -7.817325592041016, -1.068603515625, -0.207763671875, -0.21728515625, 0, 
238, 205646535, 0.09482002258300781, 0.6538265347480774, -0.18134671449661255, 0.7284461855888367, 0.9999992251396179, 0.0009277239441871643, -0.0007677013054490089, -0.0003961818292737007, 0.07735759019851685, -0.007045924663543701, 0.005384504795074463, 9.284111022949219, -0.8412630558013916, 0.6398133039474487, 12.757636070251465, -10.557077407836914, -5.448111057281494, -1.068115234375, -0.208251953125, -0.2158203125, 0, 
239, 205654868, 0.094342902302742, 0.6546891927719116, -0.18059135973453522, 0.7279207706451416, 0.9999991655349731, 0.0008251890540122986, -0.0009490689262747765, -0.00020943116396665573, 0.07852339744567871, -0.0074446797370910645, 0.004875779151916504, 9.423931121826172, -0.8909227252006531, 0.5768411755561829, 11.34761905670166, -13.051159858703613, -2.8800010681152344, -1.070556640625, -0.210205078125, -0.21435546875, 0, 
240, 205663201, 0.09367359429597855, 0.6555680632591248, -0.1801360696554184, 0.7273287773132324, 0.9999991059303284, 0.0007484443485736847, -0.0010963017120957375, -0.000007904134690761566, 0.08027935028076172, -0.008009552955627441, 0.004129886627197266, 9.634453773498535, -0.9607410430908203, 0.48578473925590515, 10.292263984680176, -15.075838088989258, -0.10869403928518295, -1.0703125, -0.210693359375, -0.20947265625, 0, 
241, 205671534, 0.09304534643888474, 0.6565375328063965, -0.17981144785881042, 0.7266147136688232, 0.9999989867210388, 0.0006616078317165375, -0.0012272251769900322, 0.00015434809029102325, 0.0811883807182312, -0.008289873600006104, 0.0044019222259521484, 9.743485450744629, -0.9959810376167297, 0.5169571042060852, 9.098128318786621, -16.876237869262695, 2.1225242614746094, -1.0703125, -0.210205078125, -0.2080078125, 0, 
242, 205679867, 0.09225265681743622, 0.6574973464012146, -0.17970582842826843, 0.7258736491203308, 0.999998927116394, 0.0005560033023357391, -0.001307646743953228, 0.0002830829471349716, 0.08405321836471558, -0.008816242218017578, 0.0036667585372924805, 10.087057113647461, -1.0605884790420532, 0.42750561237335205, 7.645902633666992, -17.982158660888672, 3.892826557159424, -1.07177734375, -0.212158203125, -0.2080078125, 0, 
243, 205688200, 0.09162190556526184, 0.6584252715110779, -0.1797036975622177, 0.7251127362251282, 0.9999989867210388, 0.0004987567663192749, -0.0012676892802119255, 0.00037864968180656433, 0.08494549989700317, -0.008752882480621338, 0.003555595874786377, 10.194005966186523, -1.054032802581787, 0.41430529952049255, 6.858675479888916, -17.43268394470215, 5.207016944885254, -1.06982421875, -0.209228515625, -0.20263671875, 0, 
244, 205696533, 0.09083767980337143, 0.6592887043952942, -0.1797732412815094, 0.7244092226028442, 0.9999990463256836, 0.0004215706139802933, -0.0012275883927941322, 0.00041317567229270935, 0.08595222234725952, -0.008926093578338623, 0.003282785415649414, 10.314713478088379, -1.0752544403076172, 0.3817903399467468, 5.797245979309082, -16.881235122680664, 5.681802272796631, -1.072265625, -0.207763671875, -0.200439453125, 0, 
245, 205704866, 0.09020286053419113, 0.660062313079834, -0.179790198802948, 0.7237796187400818, 0.9999992847442627, 0.00032136403024196625, -0.001044122502207756, 0.0004235096275806427, 0.08685833215713501, -0.008796155452728271, 0.0023341774940490723, 10.423257827758789, -1.0599002838134766, 0.26958364248275757, 4.41925048828125, -14.358292579650879, 5.823909282684326, -1.0703125, -0.20703125, -0.197021484375, 0, 
246, 205713199, 0.08956722915172577, 0.6606889367103577, -0.18000541627407074, 0.7232331037521362, 0.9999994039535522, 0.00022517144680023193, -0.0009389063343405724, 0.0004590079188346863, 0.08522301912307739, -0.009426712989807129, 0.0034366846084594727, 10.227036476135254, -1.1358108520507812, 0.4031568765640259, 3.096453905105591, -12.911408424377441, 6.312065601348877, -1.0712890625, -0.20654296875, -0.191650390625, 0, 
247, 205721532, 0.08910632133483887, 0.6612928509712219, -0.18022699654102325, 0.7226825952529907, 0.9999995231628418, 0.00012896955013275146, -0.0008631246164441109, 0.0004772040992975235, 0.08341598510742188, -0.011192858219146729, 0.0016352534294128418, 10.009848594665527, -1.3479204177856445, 0.18782168626785278, 1.7735298871994019, -11.869293212890625, 6.562291622161865, -1.072265625, -0.208251953125, -0.193115234375, 0, 
248, 205729865, 0.0885578840970993, 0.6617630124092102, -0.18058902025222778, 0.7222291231155396, 0.9999995827674866, 0.00006437301635742188, -0.0007616644725203514, 0.0005299784243106842, 0.08297491073608398, -0.012309730052947998, 0.00009906291961669922, 9.956611633300781, -1.4824976921081543, 0.004406860563904047, 0.8852280974388123, -10.474059104919434, 7.288019180297852, -1.07275390625, -0.20458984375, -0.191162109375, 0, 
249, 205738198, 0.08818265795707703, 0.6622243523597717, -0.1809585690498352, 0.7217594385147095, 0.9999995827674866, 0.000019645318388938904, -0.0007092272862792015, 0.00054929219186306, 0.08142340183258057, -0.01412355899810791, -0.0010076165199279785, 9.77017879486084, -1.7002614736557007, -0.12781137228012085, 0.27015334367752075, -9.752965927124023, 7.553613185882568, -1.07470703125, -0.203857421875, -0.188720703125, 0, 
250, 205746531, 0.08769925683736801, 0.6626049876213074, -0.1813758760690689, 0.7213642001152039, 0.9999996423721313, -0.000015700235962867737, -0.0006516650319099426, 0.0005413657054305077, 0.08274734020233154, -0.015697479248046875, -0.00239485502243042, 9.928873062133789, -1.8891234397888184, -0.2938697338104248, -0.2159024029970169, -8.961397171020508, 7.444611549377441, -1.0732421875, -0.204833984375, -0.190673828125, 0, 
251, 205754864, 0.08736254274845123, 0.6629579663276672, -0.1817271113395691, 0.7209922671318054, 0.9999997019767761, -0.00006046239286661148, -0.0005407081916928291, 0.0005295891314744949, 0.08382487297058105, -0.01559913158416748, -0.0038160085678100586, 10.058167457580566, -1.8771758079528809, -0.463392972946167, -0.8314509987831116, -7.435570240020752, 7.282665252685547, -1.0732421875, -0.2021484375, -0.190185546875, 0, 
252, 205763197, 0.0869508609175682, 0.663216233253479, -0.18219727277755737, 0.7206859588623047, 0.9999997019767761, -0.00009564217180013657, -0.0004959581419825554, 0.0005551259964704514, 0.08392387628555298, -0.016510367393493652, -0.004942953586578369, 10.069863319396973, -1.9868857860565186, -0.5983896851539612, -1.3152271509170532, -6.820187568664551, 7.6338372230529785, -1.076171875, -0.200439453125, -0.186279296875, 0, 
253, 205771530, 0.08676234632730484, 0.6634857058525085, -0.18272510170936584, 0.720326840877533, 0.9999997019767761, -0.0001566791906952858, -0.00047081802040338516, 0.0005573239177465439, 0.08331489562988281, -0.019220173358917236, -0.006735563278198242, 9.996491432189941, -2.3120501041412354, -0.8134543895721436, -2.1545801162719727, -6.474472522735596, 7.664061546325684, -1.076904296875, -0.202392578125, -0.183837890625, 0, 
254, 205779863, 0.08637771755456924, 0.6637009978294373, -0.18322370946407318, 0.7200479507446289, 0.9999997615814209, -0.00013269297778606415, -0.0004444010555744171, 0.0005651786923408508, 0.08399051427841187, -0.02219414710998535, -0.009446322917938232, 10.077247619628906, -2.6689698696136475, -1.1384541988372803, -1.8247326612472534, -6.111198425292969, 7.772076606750488, -1.07763671875, -0.198486328125, -0.184814453125, 0, 
255, 205788196, 0.0860828086733818, 0.6639136672019958, -0.18362051248550415, 0.7197862267494202, 0.9999997615814209, -0.00006532855331897736, -0.0003493931144475937, 0.000553167425096035, 0.08553934097290039, -0.02368074655532837, -0.010995864868164062, 10.263028144836426, -2.8475852012634277, -1.3234570026397705, -0.8983681797981262, -4.80469274520874, 7.606903076171875, -1.07373046875, -0.19921875, -0.185302734375, 0, 
256, 205796529, 0.08563803881406784, 0.6640436053276062, -0.18399325013160706, 0.7196242213249207, 0.9999998211860657, 0.000012353062629699707, -0.00030547473579645157, 0.0005510281771421432, 0.08601421117782593, -0.024236440658569336, -0.01194775104522705, 10.3201265335083, -2.914055347442627, -1.4368287324905396, 0.16987361013889313, -4.200747489929199, 7.577484607696533, -1.0751953125, -0.20068359375, -0.186279296875, 0, 
257, 205804862, 0.08525176346302032, 0.6641897559165955, -0.18428422510623932, 0.7194605469703674, 0.9999998211860657, 0.0001027863472700119, -0.00022947322577238083, 0.0005564503371715546, 0.08821505308151245, -0.024585425853729248, -0.013956606388092041, 10.584123611450195, -2.9566686153411865, -1.6770684719085693, 1.4134703874588013, -3.1556098461151123, 7.652048110961914, -1.0732421875, -0.1953125, -0.181396484375, 0, 
258, 205813195, 0.08467099815607071, 0.6642122864723206, -0.18452104926109314, 0.7194476127624512, 0.9999997615814209, 0.00021888874471187592, -0.0001424616202712059, 0.0005914866924285889, 0.09040200710296631, -0.023805439472198486, -0.014122724533081055, 10.846745491027832, -2.8635408878326416, -1.6957124471664429, 3.010057210922241, -1.9590665102005005, 8.133852005004883, -1.07861328125, -0.194091796875, -0.182373046875, 0, 
259, 205821528, 0.08403303474187851, 0.6642670035362244, -0.18467611074447632, 0.7194321155548096, 0.9999997019767761, 0.00034005194902420044, -0.00007286015897989273, 0.0006599482148885727, 0.09330332279205322, -0.021855592727661133, -0.013242900371551514, 11.194963455200195, -2.6308441162109375, -1.5891329050064087, 4.6762375831604, -1.001939296722412, 9.075303077697754, -1.076171875, -0.1962890625, -0.184326171875, 0, 
260, 205829861, 0.08322776854038239, 0.6641367673873901, -0.18484795093536377, 0.7196019291877747, 0.9999996423721313, 0.0004358198493719101, 0.00005304068326950073, 0.000753793865442276, 0.09811371564865112, -0.02012169361114502, -0.011399149894714355, 11.772333145141602, -2.4243431091308594, -1.3662434816360474, 5.993193626403809, 0.7293909788131714, 10.365825653076172, -1.078125, -0.194580078125, -0.181884765625, 0, 
261, 205838194, 0.0824197381734848, 0.6639377474784851, -0.185004323720932, 0.7198383808135986, 0.999999463558197, 0.0005576461553573608, 0.0002541039139032364, 0.0008435621857643127, 0.10027867555618286, -0.020022809505462646, -0.01042109727859497, 12.032230377197266, -2.4135382175445557, -1.246239423751831, 7.668492317199707, 3.4943199157714844, 11.600276947021484, -1.08154296875, -0.191162109375, -0.180908203125, 0, 
262, 205846527, 0.08148331940174103, 0.6634412407875061, -0.18508517742156982, 0.7203817367553711, 0.9999992847442627, 0.0006273556500673294, 0.000548195093870163, 0.0008867941796779633, 0.10172456502914429, -0.019260108470916748, -0.011106908321380615, 12.20610237121582, -2.32304048538208, -1.3246848583221436, 8.627106666564941, 7.538527011871338, 12.194786071777344, -1.07958984375, -0.189697265625, -0.183837890625, 0, 
263, 205854860, 0.08062678575515747, 0.6628063321113586, -0.18509574234485626, 0.7210595607757568, 0.9999989867210388, 0.0006933007389307022, 0.0008884314447641373, 0.0008902009576559067, 0.09926027059555054, -0.017727792263031006, -0.010018229484558105, 11.91087818145752, -2.1388206481933594, -1.1902110576629639, 9.533953666687012, 12.217302322387695, 12.2416353225708, -1.080078125, -0.190185546875, -0.180419921875, 0, 
264, 205863193, 0.07975784689188004, 0.6618484258651733, -0.18503440916538239, 0.722051203250885, 0.9999986290931702, 0.0007310807704925537, 0.0012023374438285828, 0.0008657928556203842, 0.09827983379364014, -0.014802157878875732, -0.009879112243652344, 11.793928146362305, -1.7874529361724854, -1.1699903011322021, 10.053489685058594, 16.533998489379883, 11.905989646911621, -1.07861328125, -0.189697265625, -0.185302734375, 0, 
265, 205871526, 0.07890249788761139, 0.6608200669288635, -0.1848355531692505, 0.7231369614601135, 0.9999982118606567, 0.0008054934442043304, 0.0014896038919687271, 0.0008481964468955994, 0.09436643123626709, -0.01402902603149414, -0.007147014141082764, 11.324263572692871, -1.6938107013702393, -0.8395037651062012, 11.07677936553955, 20.48435401916504, 11.66401195526123, -1.080078125, -0.183837890625, -0.189697265625, 0, 
266, 205879859, 0.07802408188581467, 0.659619927406311, -0.18464820086956024, 0.7243748903274536, 0.9999980926513672, 0.0008547734469175339, 0.0015490800142288208, 0.0008537899702787399, 0.08879023790359497, -0.013737916946411133, -0.004397153854370117, 10.654655456542969, -1.6581228971481323, -0.5098305940628052, 11.7544584274292, 21.302248001098633, 11.740933418273926, -1.08056640625, -0.185302734375, -0.187744140625, 0, 
267, 205888192, 0.07720348984003067, 0.6585504412651062, -0.184507817029953, 0.7254707217216492, 0.9999980926513672, 0.0008767731487751007, 0.001519693061709404, 0.0008784160017967224, 0.08682048320770264, -0.0146559476852417, -0.005585432052612305, 10.418335914611816, -1.7685052156448364, -0.6529245376586914, 12.056988716125488, 20.898134231567383, 12.079580307006836, -1.07958984375, -0.184814453125, -0.192138671875, 0, 
268, 205896525, 0.07627122104167938, 0.6573560237884521, -0.18433517217636108, 0.7266954779624939, 0.9999980330467224, 0.0008774958550930023, 0.0015256498008966446, 0.0009008310735225677, 0.08527761697769165, -0.014777660369873047, -0.004879891872406006, 10.233007431030273, -1.7831051349639893, -0.5684607028961182, 12.066926002502441, 20.98004722595215, 12.387821197509766, -1.080078125, -0.183837890625, -0.190673828125, 0, 
269, 205904858, 0.07535569369792938, 0.6562999486923218, -0.18410834670066833, 0.7278023362159729, 0.9999980330467224, 0.000871751457452774, 0.0015384498983621597, 0.000880001112818718, 0.0824248194694519, -0.01567298173904419, -0.004229247570037842, 9.890485763549805, -1.8899813890457153, -0.4906579256057739, 11.987930297851562, 21.156063079833984, 12.101374626159668, -1.07958984375, -0.181396484375, -0.195556640625, 0, 
270, 205913191, 0.07447407394647598, 0.655082643032074, -0.1839318871498108, 0.729033350944519, 0.9999980330467224, 0.0008467622101306915, 0.0015565697103738785, 0.000866251066327095, 0.07994848489761353, -0.014674961566925049, -0.0036930441856384277, 9.593351364135742, -1.7697778940200806, -0.42669743299484253, 11.644289016723633, 21.40523910522461, 11.912291526794434, -1.081787109375, -0.179443359375, -0.200927734375, 0, 
271, 205921524, 0.07363642752170563, 0.6539765000343323, -0.18372493982315063, 0.7301629781723022, 0.9999980330467224, 0.0008207559585571289, 0.0016100537031888962, 0.0008459370583295822, 0.07901722192764282, -0.012716591358184814, -0.003470122814178467, 9.481812477111816, -1.5344356298446655, -0.3998599350452423, 11.286664962768555, 22.140729904174805, 11.632943153381348, -1.081787109375, -0.179931640625, -0.200927734375, 0, 
272, 205929857, 0.07283896952867508, 0.6526552438735962, -0.18357053399085999, 0.731462836265564, 0.9999979138374329, 0.0007806140929460526, 0.0016920659691095352, 0.0008435044437646866, 0.0769004225730896, -0.011979520320892334, -0.002742588520050049, 9.227753639221191, -1.4456140995025635, -0.312431275844574, 10.734650611877441, 23.268524169921875, 11.599491119384766, -1.082275390625, -0.178955078125, -0.2041015625, 0, 
273, 205938190, 0.07205859571695328, 0.6514615416526794, -0.18339036405086517, 0.7326483130455017, 0.9999979138374329, 0.0006942283362150192, 0.0017406810075044632, 0.0008347462862730026, 0.07493460178375244, -0.009865343570709229, -0.001628577709197998, 8.991853713989258, -1.1915150880813599, -0.17898669838905334, 9.546714782714844, 23.937055587768555, 11.479052543640137, -1.083251953125, -0.175048828125, -0.20556640625, 0, 
274, 205946523, 0.07139826565980911, 0.6500778198242188, -0.18332263827323914, 0.733957827091217, 0.9999979138374329, 0.0006248541176319122, 0.001763720065355301, 0.0008118040859699249, 0.07381373643875122, -0.010690510272979736, -0.0010410547256469727, 8.857166290283203, -1.290198802947998, -0.1084577888250351, 8.592710494995117, 24.253877639770508, 11.16356086730957, -1.081298828125, -0.175537109375, -0.2138671875, 0, 
275, 205954856, 0.070824034512043, 0.6488491296768188, -0.18328411877155304, 0.7351093888282776, 0.9999979734420776, 0.0004993453621864319, 0.0017698351293802261, 0.0007857363671064377, 0.07203364372253418, -0.008819997310638428, -0.0005945563316345215, 8.643667221069336, -1.0652576684951782, -0.055543139576911926, 6.866771221160889, 24.337968826293945, 10.80509090423584, -1.081298828125, -0.174560546875, -0.2119140625, 0, 
276, 205963189, 0.07037296146154404, 0.647523045539856, -0.18338018655776978, 0.736297070980072, 0.9999982714653015, 0.0003501623868942261, 0.0016696862876415253, 0.0007453672587871552, 0.07053953409194946, -0.009553194046020508, -0.0011426210403442383, 8.464447975158691, -1.1527683734893799, -0.12262172996997833, 4.815274238586426, 22.960765838623047, 10.249951362609863, -1.083740234375, -0.167236328125, -0.2138671875, 0, 
277, 205971522, 0.06989811360836029, 0.6464394330978394, -0.18342232704162598, 0.7372833490371704, 0.9999984502792358, 0.0002221968024969101, 0.0015983209013938904, 0.0007163379341363907, 0.06894522905349731, -0.010017812252044678, 0.0005264878273010254, 8.272784233093262, -1.2081202268600464, 0.07672463357448578, 3.055549144744873, 21.979381561279297, 9.850753784179688, -1.07958984375, -0.168212890625, -0.21630859375, 0, 
278, 205979855, 0.06964956969022751, 0.6452253460884094, -0.18371248245239258, 0.7382974028587341, 0.9999986290931702, 0.00005206279456615448, 0.0014990903437137604, 0.0006889663636684418, 0.06827759742736816, -0.009829282760620117, 0.0005081892013549805, 8.192731857299805, -1.1851762533187866, 0.07327191531658173, 0.7159437537193298, 20.614803314208984, 9.474349975585938, -1.08154296875, -0.170166015625, -0.22021484375, 0, 
279, 205988188, 0.06932660192251205, 0.6443132758140564, -0.18393048644065857, 0.7390697598457336, 0.9999988675117493, -0.000038363970816135406, 0.0013558287173509598, 0.000672604888677597, 0.06661957502365112, -0.011493980884552002, 0.0006157755851745605, 7.993633270263672, -1.3847190141677856, 0.08469439297914505, -0.527563750743866, 18.644737243652344, 9.24935531616211, -1.08251953125, -0.167236328125, -0.2236328125, 0, 
280, 205996521, 0.06918936222791672, 0.6432019472122192, -0.18426290154457092, 0.7399672269821167, 0.9999988675117493, -0.00006541144102811813, 0.0013662520796060562, 0.0006070863455533981, 0.06950318813323975, -0.01490849256515503, -0.0019559860229492188, 8.339944839477539, -1.7941293716430664, -0.22347141802310944, -0.8995082974433899, 18.788074493408203, 8.348374366760254, -1.078125, -0.168212890625, -0.2265625, 0, 
281, 206004854, 0.06914909183979034, 0.6422032117843628, -0.18452534079551697, 0.7407727241516113, 0.9999988079071045, -0.00008417386561632156, 0.0014629922807216644, 0.0005291886627674103, 0.06674152612686157, -0.01604902744293213, 0.00022596120834350586, 8.008243560791016, -1.9301773309707642, 0.03860706835985184, -1.1575205326080322, 20.1184024810791, 7.277161121368408, -1.08349609375, -0.164306640625, -0.23046875, 0, 
282, 206013187, 0.06915944814682007, 0.6410948634147644, -0.18475821614265442, 0.7416732311248779, 0.999998927116394, -0.00008629169315099716, 0.0014009363949298859, 0.0004337746649980545, 0.06427907943725586, -0.017098605632781982, 0.0006908178329467773, 7.71279239654541, -2.055248737335205, 0.09346901625394821, -1.1866438388824463, 19.265037536621094, 5.9650702476501465, -1.08251953125, -0.163330078125, -0.23095703125, 0, 
