PacketCounter,SampleTimeFine,Quat_W,Quat_X,Quat_Y,Quat_Z,dq_W,dq_X,dq_Y,dq_Z,dv[1],dv[2],dv[3],Acc_X,Acc_Y,Acc_Z,Gyr_X,Gyr_Y,Gyr_Z,Mag_X,Mag_Y,Mag_Z,Status,
431, 3238557040, 0.18455646932125092, 0.6543561220169067, -0.24571967124938965, 0.6909261345863342, 0.9999993443489075, 0.0008272472769021988, 0.0005251597613096237, 0.000581786036491394, 0.07572311162948608, 0.0011986494064331055, 0.0049704909324646, 9.086901664733887, 0.13900509476661682, 0.6011828780174255, 11.37592601776123, 7.221756458282471, 8.000454902648926, -1.02880859375, -0.26904296875, -0.267822265625, 0, 
432, 3238565373, 0.18400031328201294, 0.653922438621521, -0.24567124247550964, 0.691502034664154, 0.9999995231628418, 0.00048057921230793, 0.0005398597568273544, 0.0006842780858278275, 0.07605761289596558, 0.0009695887565612793, 0.004046261310577393, 9.127095222473145, 0.11038720607757568, 0.49040767550468445, 6.608704566955566, 7.423903465270996, 9.40987777709961, -1.02783203125, -0.26806640625, -0.262451171875, 0, 
433, 3238573706, 0.1837521195411682, 0.6534212231636047, -0.24580080807209015, 0.6919956803321838, 0.9999995827674866, 0.00012467801570892334, 0.0005941335111856461, 0.0007167607545852661, 0.07580310106277466, -0.000028192996978759766, 0.004969239234924316, 9.0963716506958, -0.009914939291775227, 0.6018099188804626, 1.7145147323608398, 8.17025089263916, 9.85656452178955, -1.033203125, -0.265625, -0.265380859375, 0, 
434, 3238582039, 0.1836281716823578, 0.6528247594833374, -0.2462524026632309, 0.6924307346343994, 0.9999995231628418, -0.00021244864910840988, 0.0005747582763433456, 0.0007266271859407425, 0.07440364360809326, -0.00026935338973999023, 0.007229983806610107, 8.928274154663086, -0.03892677649855614, 0.8727039098739624, -2.9214961528778076, 7.903811454772949, 9.992243766784668, -1.03369140625, -0.26708984375, -0.266845703125, 0, 
435, 3238590372, 0.18369939923286438, 0.6523115634918213, -0.24681612849235535, 0.692694902420044, 0.9999995231628418, -0.0004349825903773308, 0.00044772401452064514, 0.0007452387362718582, 0.07407444715499878, -0.00031745433807373047, 0.008577466011047363, 8.888792991638184, -0.04523339122533798, 1.0333354473114014, -5.981679916381836, 6.156894207000732, 10.24817943572998, -1.02978515625, -0.26318359375, -0.268798828125, 0, 
436, 3238598705, 0.18367372453212738, 0.6518949270248413, -0.2475692629814148, 0.6928253173828125, 0.9999995231628418, -0.0005275895819067955, 0.00022032298147678375, 0.0007555056363344193, 0.0732799768447876, 0.00009042024612426758, 0.009957671165466309, 8.793692588806152, 0.003605491016060114, 1.1969022750854492, -7.2551703453063965, 3.029780387878418, 10.38936710357666, -1.0361328125, -0.2626953125, -0.268798828125, 0, 
437, 3238607038, 0.18375170230865479, 0.6516357064247131, -0.24835750460624695, 0.6927662491798401, 0.9999995231628418, -0.0006371187046170235, 0.000016948208212852478, 0.0007691122591495514, 0.0758594274520874, 0.0004715919494628906, 0.010524153709411621, 9.103515625, 0.0488986074924469, 1.263135313987732, -8.761363983154297, 0.2330639809370041, 10.576478958129883, -1.03173828125, -0.2626953125, -0.267333984375, 0, 
438, 3238615371, 0.18374274671077728, 0.6514540314674377, -0.24935871362686157, 0.6925797462463379, 0.9999994039535522, -0.0007456662133336067, -0.0001904768869280815, 0.0007894095033407211, 0.07359153032302856, 0.0010090470314025879, 0.010814428329467773, 8.831679344177246, 0.1131095215678215, 1.2961814403533936, -10.254057884216309, -2.6193506717681885, 10.855595588684082, -1.033203125, -0.2578125, -0.269775390625, 0, 
439, 3238623704, 0.1838899552822113, 0.6513922810554504, -0.2504812180995941, 0.6921936273574829, 0.9999991059303284, -0.0009557148441672325, -0.00038492772728204727, 0.000834781676530838, 0.07535845041275024, 0.0014400482177734375, 0.010760307312011719, 9.044013023376465, 0.1640307456254959, 1.2879693508148193, -13.142550468444824, -5.29334831237793, 11.479533195495605, -1.029541015625, -0.25537109375, -0.274169921875, 0, 
440, 3238632037, 0.18407313525676727, 0.6512630581855774, -0.25192010402679443, 0.6917442679405212, 0.9999987483024597, -0.0012298310175538063, -0.00043053459376096725, 0.000880461186170578, 0.07894808053970337, 0.002891838550567627, 0.00882101058959961, 9.474907875061035, 0.3373902142047882, 1.0549067258834839, -16.912071228027344, -5.920514106750488, 12.107698440551758, -1.033203125, -0.255859375, -0.269775390625, 0, 
441, 3238640370, 0.18453368544578552, 0.6511093378067017, -0.2535308301448822, 0.6911774277687073, 0.9999982714653015, -0.0015384936705231667, -0.0004607615992426872, 0.0009322967380285263, 0.07922804355621338, 0.004010975360870361, 0.006190478801727295, 9.50853443145752, 0.47130587697029114, 0.7392324209213257, -21.156665802001953, -6.336184024810791, 12.820520401000977, -1.0341796875, -0.25390625, -0.269775390625, 0, 
442, 3238648703, 0.18505483865737915, 0.6508389711380005, -0.2554723620414734, 0.6905775666236877, 0.9999976754188538, -0.0018614986911416054, -0.00043853092938661575, 0.0009823385626077652, 0.08129638433456421, 0.0049329400062561035, 0.005216717720031738, 9.756807327270508, 0.5812364816665649, 0.6228496432304382, -25.59848976135254, -6.030479431152344, 13.508678436279297, -1.0361328125, -0.25634765625, -0.271240234375, 0, 
443, 3238657036, 0.18586334586143494, 0.650484561920166, -0.2575424611568451, 0.6899252533912659, 0.9999970197677612, -0.002170913852751255, -0.000375634990632534, 0.0010336879640817642, 0.08301520347595215, 0.005761921405792236, 0.005225121974945068, 9.963171005249023, 0.67978435754776, 0.6247866749763489, -29.853435516357422, -5.165564060211182, 14.214813232421875, -1.037841796875, -0.25048828125, -0.270263671875, 0, 
444, 3238665369, 0.1867363303899765, 0.6499398946762085, -0.25992193818092346, 0.6893103122711182, 0.9999963641166687, -0.0024472614750266075, -0.0002502845600247383, 0.0010926183313131332, 0.0844147801399231, 0.005841195583343506, 0.006188631057739258, 10.131125450134277, 0.6880922317504883, 0.7418352961540222, -33.653648376464844, -3.441801071166992, 15.02519702911377, -1.039306640625, -0.24658203125, -0.270263671875, 0, 
445, 3238673702, 0.18783065676689148, 0.6492887139320374, -0.26236051321029663, 0.6887022852897644, 0.999995768070221, -0.002657082863152027, -0.0001404816284775734, 0.001171160489320755, 0.08424580097198486, 0.006655275821685791, 0.008560597896575928, 10.11097526550293, 0.7840725779533386, 1.0280022621154785, -36.53902816772461, -1.9318411350250244, 16.10527992248535, -1.036376953125, -0.24609375, -0.273681640625, 0, 
446, 3238682035, 0.18893446028232574, 0.6484902501106262, -0.2651086151599884, 0.6881000995635986, 0.9999950528144836, -0.0028953654691576958, -0.00007632281631231308, 0.0012419261038303375, 0.08485615253448486, 0.005915820598602295, 0.008463799953460693, 10.184097290039062, 0.6943488717079163, 1.0169588327407837, -39.81578826904297, -1.0495576858520508, 17.078420639038086, -1.040771484375, -0.2421875, -0.272705078125, 0, 
447, 3238690368, 0.19038566946983337, 0.6475630402565002, -0.26795491576194763, 0.687470555305481, 0.9999939799308777, -0.0032238783314824104, 0.000046795234084129333, 0.0012699346989393234, 0.08489459753036499, 0.006495058536529541, 0.008508503437042236, 10.18869400024414, 0.7632022500038147, 1.024034023284912, -44.3333740234375, 0.6435077786445618, 17.463592529296875, -1.037841796875, -0.24072265625, -0.278076171875, 0, 
448, 3238698701, 0.191958948969841, 0.6464191675186157, -0.27118873596191406, 0.6868411898612976, 0.9999926090240479, -0.0036064879968762398, 0.00017615780234336853, 0.001321103423833847, 0.08376479148864746, 0.007725536823272705, 0.008038640022277832, 10.053223609924316, 0.9103370308876038, 0.9697693586349487, -49.59487533569336, 2.4224464893341064, 18.167247772216797, -1.038330078125, -0.23779296875, -0.281494140625, 0, 
449, 3238707034, 0.19395162165164948, 0.6451151371002197, -0.27460673451423645, 0.6861491799354553, 0.9999907612800598, -0.004064011387526989, 0.0002955608069896698, 0.0013682860881090164, 0.0843546986579895, 0.008599936962127686, 0.0063280463218688965, 10.124147415161133, 1.0150846242904663, 0.7665600180625916, -55.886573791503906, 4.064428329467773, 18.81609535217285, -1.041259765625, -0.2314453125, -0.279052734375, 0, 
450, 3238715367, 0.19619767367839813, 0.643454909324646, -0.2784178555011749, 0.6855334043502808, 0.9999886155128479, -0.0045331669971346855, 0.0006110407412052155, 0.0013762656599283218, 0.08580970764160156, 0.006664454936981201, 0.0006157755851745605, 10.298624038696289, 0.7852364778518677, 0.08379697799682617, -62.33824920654297, 8.402782440185547, 18.92584228515625, -1.04150390625, -0.230712890625, -0.286865234375, 0, 
451, 3238723700, 0.19913902878761292, 0.641273558139801, -0.2822389304637909, 0.6851665377616882, 0.9999856352806091, -0.0050366586074233055, 0.0012843944132328033, 0.0012964941561222076, 0.08594989776611328, 0.0037024617195129395, -0.002901434898376465, 10.315412521362305, 0.4326673150062561, -0.3327189087867737, -69.26212310791016, 17.662479400634766, 17.828872680664062, -1.04248046875, -0.226318359375, -0.290283203125, 0, 
452, 3238732033, 0.2024468332529068, 0.6386822462081909, -0.28636208176612854, 0.6849067211151123, 0.9999826550483704, -0.005513771437108517, 0.0017128102481365204, 0.0011801384389400482, 0.08237200975418091, 0.0027002692222595215, -0.0019180774688720703, 9.885798454284668, 0.3136167824268341, -0.21148349344730377, -75.82327270507812, 23.553911209106445, 16.228809356689453, -1.04296875, -0.223876953125, -0.297607421875, 0, 
453, 3238740366, 0.20624615252017975, 0.6358492970466614, -0.2904719412326813, 0.6846783757209778, 0.9999801516532898, -0.005867163650691509, 0.002003652974963188, 0.0011165495961904526, 0.08042818307876587, 0.0015625357627868652, -0.0004420280456542969, 9.652066230773926, 0.1770029515028, -0.032620638608932495, -80.68305206298828, 27.553489685058594, 15.354374885559082, -1.042724609375, -0.218017578125, -0.306884765625, 0, 
454, 3238748699, 0.21015776693820953, 0.6327500343322754, -0.2947854697704315, 0.6845165491104126, 0.999978244304657, -0.006104904226958752, 0.0022569596767425537, 0.0010548178106546402, 0.0800970196723938, -0.0019505023956298828, -0.0006963014602661133, 9.61194896697998, -0.243740975856781, -0.0633116215467453, -83.9524154663086, 31.036888122558594, 14.505471229553223, -1.041748046875, -0.216552734375, -0.311279296875, 0, 
455, 3238757032, 0.21449343860149384, 0.6294993758201599, -0.2989879548549652, 0.6843461394309998, 0.999976396560669, -0.006340437568724155, 0.002463230863213539, 0.0009492915123701096, 0.0809594988822937, -0.0035220980644226074, 0.0002544522285461426, 9.715031623840332, -0.43213149905204773, 0.05177028477191925, -87.19143676757812, 33.87347412109375, 13.054319381713867, -1.04150390625, -0.210205078125, -0.32421875, 0, 
456, 3238765365, 0.21881097555160522, 0.6261704564094543, -0.30348750948905945, 0.6840526461601257, 0.9999750256538391, -0.00657705869525671, 0.0024104826152324677, 0.0009339582175016403, 0.08026695251464844, -0.005203723907470703, 0.004015088081359863, 9.630655288696289, -0.6366804838180542, 0.5009167194366455, -90.44542694091797, 33.14812088012695, 12.84346866607666, -1.04248046875, -0.207763671875, -0.3271484375, 0, 
457, 3238773698, 0.22319741547107697, 0.6229230761528015, -0.3079555928707123, 0.6836032271385193, 0.9999749064445496, -0.006640828214585781, 0.002241913229227066, 0.0010225530713796616, 0.07968473434448242, -0.007948338985443115, 0.005829811096191406, 9.559988975524902, -0.968299925327301, 0.7146800756454468, -91.32235717773438, 30.83000946044922, 14.06179428100586, -1.04150390625, -0.205322265625, -0.3359375, 0, 
458, 3238782031, 0.22731433808803558, 0.6196959614753723, -0.31266114115715027, 0.6830435395240784, 0.9999751448631287, -0.00665202084928751, 0.0020663924515247345, 0.0011101756244897842, 0.08003616333007812, -0.0103071928024292, 0.00490182638168335, 9.602121353149414, -1.2515099048614502, 0.5998250246047974, -91.47627258300781, 28.416309356689453, 15.26675033569336, -1.038330078125, -0.197998046875, -0.3408203125, 0, 
459, 3238790364, 0.23132836818695068, 0.6166527271270752, -0.31718340516090393, 0.6823645234107971, 0.999976634979248, -0.006473924033343792, 0.0018267873674631119, 0.0011953208595514297, 0.0808144211769104, -0.011982381343841553, 0.0035689473152160645, 9.695606231689453, -1.452323079109192, 0.43666428327560425, -89.02710723876953, 25.12133026123047, 16.43762969970703, -1.040771484375, -0.197509765625, -0.3515625, 0, 
460, 3238798697, 0.23482446372509003, 0.613723874092102, -0.3216269016265869, 0.6817307472229004, 0.9999794960021973, -0.006044683046638966, 0.0016799643635749817, 0.0012617800384759903, 0.08377480506896973, -0.013370990753173828, 0.00391310453414917, 10.050554275512695, -1.6201183795928955, 0.47674787044525146, -83.12425231933594, 23.102251052856445, 17.35153579711914, -1.04052734375, -0.191162109375, -0.3583984375, 0, 
461, 3238807030, 0.23830288648605347, 0.6108435392379761, -0.32574567198753357, 0.6811547875404358, 0.9999809265136719, -0.005798564292490482, 0.001698419451713562, 0.0012811794877052307, 0.08804023265838623, -0.017094850540161133, 0.003765702247619629, 10.561843872070312, -2.06762957572937, 0.4579174816608429, -79.73968505859375, 23.356027603149414, 17.618301391601562, -1.0390625, -0.187744140625, -0.3662109375, 0, 
462, 3238815363, 0.24157162010669708, 0.6078929305076599, -0.3298185467720032, 0.6806830763816833, 0.9999818801879883, -0.005605871789157391, 0.0018072053790092468, 0.0012356322258710861, 0.09021365642547607, -0.0220755934715271, 0.0032978057861328125, 10.822074890136719, -2.664775848388672, 0.40043383836746216, -77.08981323242188, 24.851999282836914, 16.991945266723633, -1.0439453125, -0.181640625, -0.3681640625, 0, 
463, 3238823696, 0.24490343034267426, 0.6049926280975342, -0.3336215615272522, 0.6802229285240173, 0.9999827146530151, -0.005461922846734524, 0.0018075723201036453, 0.0012165457010269165, 0.08998000621795654, -0.024809062480926514, 0.005704700946807861, 10.79316520690918, -2.994081497192383, 0.6878135204315186, -75.11027526855469, 24.85704231262207, 16.72947120666504, -1.040283203125, -0.17578125, -0.376708984375, 0, 
464, 3238832029, 0.24801258742809296, 0.6022073030471802, -0.3375331163406372, 0.6796380877494812, 0.9999834299087524, -0.005397149361670017, 0.001611432060599327, 0.0011635217815637589, 0.0903196930885315, -0.025528788566589355, 0.008305966854095459, 10.833620071411133, -3.081568479537964, 0.9976521134376526, -74.2195053100586, 22.159791946411133, 16.000301361083984, -1.040283203125, -0.171875, -0.385009765625, 0, 
465, 3238840362, 0.2512045204639435, 0.5996188521385193, -0.34129077196121216, 0.6788774132728577, 0.9999840259552002, -0.005371176637709141, 0.0013762079179286957, 0.0010939333587884903, 0.08716034889221191, -0.02607107162475586, 0.009636640548706055, 10.454638481140137, -3.146305799484253, 1.1539982557296753, -73.86233520507812, 18.92507553100586, 15.043346405029297, -1.042724609375, -0.16845703125, -0.386474609375, 0, 
466, 3238848695, 0.25394347310066223, 0.5973110795021057, -0.34501010179519653, 0.6780122518539429, 0.9999862909317017, -0.0050203390419483185, 0.001039726659655571, 0.0010676104575395584, 0.08777809143066406, -0.024861693382263184, 0.007342696189880371, 10.52968692779541, -2.999180316925049, 0.877106249332428, -69.03770446777344, 14.297905921936035, 14.681351661682129, -1.0400390625, -0.1650390625, -0.393310546875, 0, 
467, 3238857028, 0.2566305994987488, 0.5951843857765198, -0.3483593761920929, 0.6771574020385742, 0.9999879598617554, -0.004708041436970234, 0.0009312611073255539, 0.000997217372059822, 0.08980333805084229, -0.023762643337249756, 0.0058329105377197266, 10.773332595825195, -2.8656630516052246, 0.6965654492378235, -64.7430648803711, 12.806323051452637, 13.713326454162598, -1.04248046875, -0.15771484375, -0.394287109375, 0, 
468, 3238865361, 0.25917887687683105, 0.5930415391921997, -0.3515620231628418, 0.6764113306999207, 0.9999890327453613, -0.004473273642361164, 0.001064123585820198, 0.0008626040071249008, 0.08735960721969604, -0.024231791496276855, 0.002583324909210205, 10.480732917785645, -2.9183523654937744, 0.3081437051296234, -61.514610290527344, 14.63338851928711, 11.862174034118652, -1.037109375, -0.155517578125, -0.397216796875, 0, 
469, 3238873694, 0.2617858946323395, 0.5908617377281189, -0.35435596108436584, 0.6758568286895752, 0.9999901056289673, -0.004193604923784733, 0.00125788152217865, 0.0008065495640039444, 0.08671796321868896, -0.02704864740371704, -0.0042588114738464355, 10.404595375061035, -3.252216100692749, -0.5116095542907715, -57.66870880126953, 17.297863006591797, 11.091334342956543, -1.0419921875, -0.154296875, -0.404052734375, 0, 
470, 3238882027, 0.2640022039413452, 0.5886088609695435, -0.3568751811981201, 0.6756350994110107, 0.999991774559021, -0.0036585787311196327, 0.0015087500214576721, 0.0008584801107645035, 0.08699506521224976, -0.028426945209503174, -0.007457077503204346, 10.438243865966797, -3.4170594215393066, -0.8916237950325012, -50.31121063232422, 20.7476863861084, 11.805452346801758, -1.036376953125, -0.150390625, -0.409423828125, 0, 
471, 3238890360, 0.2659832537174225, 0.5862676501274109, -0.3588200509548187, 0.6758636236190796, 0.9999933242797852, -0.0030140457674860954, 0.0018330011516809464, 0.0009802859276533127, 0.08816522359848022, -0.030009567737579346, -0.010717332363128662, 10.579070091247559, -3.6077980995178223, -1.2775957584381104, -41.44786071777344, 25.206640243530273, 13.480470657348633, -1.038818359375, -0.14697265625, -0.411376953125, 0, 
472, 3238898693, 0.26773297786712646, 0.583733081817627, -0.36073240637779236, 0.6763484477996826, 0.9999932646751404, -0.0027964776381850243, 0.0021076928824186325, 0.0011049043387174606, 0.0870923399925232, -0.031231701374053955, -0.013621985912322998, 10.450794219970703, -3.754934787750244, -1.6231743097305298, -38.455955505371094, 28.984085083007812, 15.194167137145996, -1.041259765625, -0.14404296875, -0.420166015625, 0, 
473, 3238907026, 0.2693917751312256, 0.5811396837234497, -0.3624129891395569, 0.6770241260528564, 0.9999935030937195, -0.002551569603383541, 0.0022304467856884003, 0.0012393798679113388, 0.08586996793746948, -0.031968116760253906, -0.012576639652252197, 10.30340576171875, -3.845259428024292, -1.496067762374878, -35.088077545166016, 30.672136306762695, 17.043413162231445, -1.0380859375, -0.14111328125, -0.426513671875, 0, 
474, 3238915359, 0.2711133360862732, 0.5782868266105652, -0.36425864696502686, 0.6777887344360352, 0.9999923706054688, -0.0027194665744900703, 0.002493619918823242, 0.0012753400951623917, 0.0862816572189331, -0.03372067213058472, -0.00998830795288086, 10.352025985717773, -4.0565924644470215, -1.1838515996932983, -37.396942138671875, 34.291194915771484, 17.537931442260742, -1.03662109375, -0.13671875, -0.4296875, 0, 
475, 3238923692, 0.27303755283355713, 0.5752522945404053, -0.36594438552856445, 0.6786901354789734, 0.9999915957450867, -0.002743717283010483, 0.0027693137526512146, 0.0012684538960456848, 0.08383119106292725, -0.03618353605270386, -0.007034361362457275, 10.05695629119873, -4.352656841278076, -0.8282210230827332, -37.730438232421875, 38.08243179321289, 17.443239212036133, -1.0341796875, -0.130859375, -0.43505859375, 0, 
476, 3238932025, 0.27516815066337585, 0.5718905925750732, -0.3677760362625122, 0.6796799302101135, 0.9999898672103882, -0.003002346493303776, 0.0031216833740472794, 0.0012368261814117432, 0.08031201362609863, -0.03550034761428833, -0.003675103187561035, 9.6339111328125, -4.270826816558838, -0.42374318838119507, -41.287017822265625, 42.92809295654297, 17.008317947387695, -1.036376953125, -0.13037109375, -0.44287109375, 0, 
477, 3238940358, 0.2773791253566742, 0.5685462355613708, -0.3695840835571289, 0.6806053519248962, 0.9999898076057434, -0.0030653076246380806, 0.003075741231441498, 0.001246059313416481, 0.07512897253036499, -0.033967554569244385, -0.00101548433303833, 9.01111125946045, -4.087146759033203, -0.1066393256187439, -42.152835845947266, 42.29631423950195, 17.135290145874023, -1.031494140625, -0.1240234375, -0.44775390625, 0, 
478, 3238948691, 0.2792576253414154, 0.5653685331344604, -0.3715260326862335, 0.6814265847206116, 0.9999908804893494, -0.002945755608379841, 0.0027765072882175446, 0.0013568326830863953, 0.06957155466079712, -0.031472742557525635, 0.00013047456741333008, 8.343732833862305, -3.788271427154541, 0.0277041457593441, -40.508792877197266, 38.18136215209961, 18.658592224121094, -1.034423828125, -0.12109375, -0.45556640625, 0, 
479, 3238957024, 0.2807009518146515, 0.5625016689300537, -0.3733794093132019, 0.6821925640106201, 0.9999926686286926, -0.002585398033261299, 0.002368752844631672, 0.001555819995701313, 0.06838935613632202, -0.029494941234588623, 0.0017981529235839844, 8.201014518737793, -3.5528724193573, 0.22606441378593445, -35.553279876708984, 32.57406997680664, 21.394968032836914, -1.03271484375, -0.11669921875, -0.46044921875, 0, 
480, 3238965357, 0.281681627035141, 0.5598782896995544, -0.375232994556427, 0.6829289793968201, 0.9999939203262329, -0.0022556697949767113, 0.0020408276468515396, 0.0016890708357095718, 0.07292699813842773, -0.03134417533874512, -0.0006415247917175293, 8.745381355285645, -3.7760560512542725, -0.06762998551130295, -31.01898956298828, 28.0645751953125, 23.227367401123047, -1.03173828125, -0.11083984375, -0.46728515625, 0, 
481, 3238973690, 0.2824108600616455, 0.5574167966842651, -0.37670546770095825, 0.683830201625824, 0.9999949932098389, -0.0017582839354872704, 0.002011368051171303, 0.0017014704644680023, 0.07768446207046509, -0.03181958198547363, -0.003040611743927002, 9.316722869873047, -3.8337435722351074, -0.3528503179550171, -24.179149627685547, 27.65945053100586, 23.39787483215332, -1.0302734375, -0.10791015625, -0.4697265625, 0, 
482, 3238982023, 0.28287553787231445, 0.5550804138183594, -0.377951055765152, 0.6848506331443787, 0.9999957084655762, -0.001364218071103096, 0.001980976201593876, 0.0016744593158364296, 0.07862818241119385, -0.03454458713531494, -0.005506336688995361, 9.4301118850708, -4.160406112670898, -0.6477697491645813, -18.760122299194336, 27.241506576538086, 23.02642250061035, -1.031005859375, -0.1044921875, -0.47265625, 0, 
483, 3238990356, 0.28356021642684937, 0.5526569485664368, -0.3789446949958801, 0.6859772205352783, 0.9999955296516418, -0.0013074539601802826, 0.002236020751297474, 0.0015007397159934044, 0.07922214269638062, -0.035327792167663574, -0.005926787853240967, 9.502241134643555, -4.252861022949219, -0.6955214738845825, -17.979524612426758, 30.748764038085938, 20.63750648498535, -1.026611328125, -0.09912109375, -0.479248046875, 0, 
484, 3238998689, 0.2839615046977997, 0.5505595803260803, -0.37987756729125977, 0.6869810819625854, 0.9999966621398926, -0.0010540597140789032, 0.0018723877146840096, 0.0014493940398097038, 0.07109683752059937, -0.03439968824386597, -0.006876111030578613, 8.527518272399902, -4.139604568481445, -0.8135700225830078, -14.49495792388916, 25.748239517211914, 19.93141746520996, -1.028564453125, -0.09716796875, -0.482666015625, 0, 
485, 3239007022, 0.2839336693286896, 0.5489540696144104, -0.38062721490859985, 0.6878620386123657, 0.9999978542327881, -0.0006047133356332779, 0.001347898505628109, 0.0014600390568375587, 0.07623881101608276, -0.03259861469268799, -0.0051757097244262695, 9.144129753112793, -3.924992799758911, -0.6111318469047546, -8.315743446350098, 18.535686492919922, 20.07779312133789, -1.029541015625, -0.09326171875, -0.488037109375, 0, 
486, 3239015355, 0.28375810384750366, 0.5474603772163391, -0.38131773471832275, 0.6887420415878296, 0.9999980926513672, -0.0004458632320165634, 0.0012388462200760841, 0.0014481032267212868, 0.07661134004592896, -0.0340535044670105, -0.005570411682128906, 9.188610076904297, -4.099646091461182, -0.6588777303695679, -6.131309509277344, 17.036052703857422, 19.913660049438477, -1.02685546875, -0.09130859375, -0.490966796875, 0, 
487, 3239023688, 0.2835131287574768, 0.5461397767066956, -0.38209399580955505, 0.6894606947898865, 0.9999983310699463, -0.000481446273624897, 0.0009827204048633575, 0.0014547258615493774, 0.08160221576690674, -0.03443038463592529, -0.005646169185638428, 9.787312507629395, -4.145705223083496, -0.669950544834137, -6.620630741119385, 13.513923645019531, 20.004730224609375, -1.0244140625, -0.08837890625, -0.492431640625, 0, 
488, 3239032021, 0.2832984924316406, 0.5447673201560974, -0.3829330801963806, 0.6901688575744629, 0.9999982714653015, -0.0005579227581620216, 0.0010043159127235413, 0.001461343839764595, 0.0801512598991394, -0.03292649984359741, -0.0013425946235656738, 9.61291217803955, -3.9653091430664062, -0.15366289019584656, -7.672299385070801, 13.810894966125488, 20.095735549926758, -1.02734375, -0.08935546875, -0.492919921875, 0, 
489, 3239040354, 0.283063143491745, 0.5433945059776306, -0.3839588165283203, 0.6907774209976196, 0.999998152256012, -0.0007122205570340157, 0.0009021665900945663, 0.0015594642609357834, 0.07661992311477661, -0.03255796432495117, 0.0005330443382263184, 9.188593864440918, -3.9215023517608643, 0.06947806477546692, -9.794133186340332, 12.406185150146484, 21.44504165649414, -1.02734375, -0.08056640625, -0.496337890625, 0, 
490, 3239048687, 0.2828224003314972, 0.5420066714286804, -0.3852114975452423, 0.691268801689148, 0.9999979138374329, -0.0009166756644845009, 0.0007698405534029007, 0.00164899043738842, 0.07511049509048462, -0.03104013204574585, -0.00026422739028930664, 9.007505416870117, -3.7397620677948, -0.028198663145303726, -12.60571002960205, 10.586499214172363, 22.676172256469727, -1.02685546875, -0.07958984375, -0.495361328125, 0, 
491, 3239057020, 0.2827327251434326, 0.5406551957130432, -0.38676878809928894, 0.6914942860603333, 0.9999976754188538, -0.001296977512538433, 0.0005916990339756012, 0.0016189534217119217, 0.07706791162490845, -0.027541399002075195, -0.0003433823585510254, 9.243188858032227, -3.3200039863586426, -0.04002968966960907, -17.835451126098633, 8.136778831481934, 22.263118743896484, -1.02587890625, -0.07568359375, -0.495849609375, 0, 
492, 3239065353, 0.28275570273399353, 0.5393326878547668, -0.3884243071079254, 0.6915896534919739, 0.999997615814209, -0.001472323201596737, 0.0004981458187103271, 0.0015476290136575699, 0.07221758365631104, -0.024105966091156006, 0.003373861312866211, 8.661783218383789, -2.9068002700805664, 0.4049302041530609, -20.246721267700195, 6.85027551651001, 21.28229522705078, -1.025390625, -0.07421875, -0.499267578125, 0, 
493, 3239073686, 0.282767653465271, 0.5382936000823975, -0.39007246494293213, 0.6914665699005127, 0.9999979734420776, -0.0014590471982955933, 0.00020742136985063553, 0.0013691438362002373, 0.0676773190498352, -0.02536553144454956, 0.004145801067352295, 8.117319107055664, -3.055847406387329, 0.49474868178367615, -20.06415367126465, 2.8523647785186768, 18.827844619750977, -1.0283203125, -0.06689453125, -0.497314453125, 0, 
494, 3239082019, 0.2828405499458313, 0.5375642776489258, -0.3916308581829071, 0.6911231279373169, 0.9999983310699463, -0.0014349650591611862, -0.00010143779218196869, 0.0011058086529374123, 0.06257510185241699, -0.026769161224365234, 0.005684792995452881, 7.505840301513672, -3.221667528152466, 0.6768493056297302, -19.732986450195312, -1.3949263095855713, 15.206576347351074, -1.026123046875, -0.067138671875, -0.499267578125, 0, 
495, 3239090352, 0.2825326919555664, 0.537421703338623, -0.3929942548274994, 0.6905857920646667, 0.9999988079071045, -0.0009973607957363129, -0.000677257776260376, 0.0009633824229240417, 0.06114816665649414, -0.024411797523498535, 0.006672680377960205, 7.33578634262085, -2.937406063079834, 0.7928510904312134, -13.715250968933105, -9.313338279724121, 13.247993469238281, -1.029541015625, -0.0625, -0.500244140625, 0, 
496, 3239098685, 0.2816894054412842, 0.5377566814422607, -0.3940699100494385, 0.6900562644004822, 0.9999987483024597, -0.00038106832653284073, -0.0011598365381360054, 0.0010091084986925125, 0.06731003522872925, -0.02157425880432129, 0.0041918158531188965, 8.075494766235352, -2.5973377227783203, 0.4927046000957489, -5.240277290344238, -15.949542045593262, 13.876798629760742, -1.027587890625, -0.059326171875, -0.498779296875, 0, 
497, 3239107018, 0.2804092466831207, 0.5382986664772034, -0.39504697918891907, 0.6895962953567505, 0.9999983310699463, 0.00001663900911808014, -0.0013817409053444862, 0.0011719129979610443, 0.07234245538711548, -0.022281646728515625, -0.0009152889251708984, 8.67815113067627, -2.6840646266937256, -0.12177163362503052, 0.228812113404274, -19.00107192993164, 16.11561393737793, -1.029052734375, -0.0576171875, -0.496826171875, 0, 
498, 3239115351, 0.27891072630882263, 0.5388954281806946, -0.39611339569091797, 0.6891260147094727, 0.9999978542327881, 0.00007480010390281677, -0.0015642894431948662, 0.0013697333633899689, 0.07761865854263306, -0.024058759212493896, -0.0038657784461975098, 9.309924125671387, -2.899935722351074, -0.4782392382621765, 1.028617262840271, -21.51140022277832, 18.835954666137695, -1.03271484375, -0.05712890625, -0.493896484375, 0, 
499, 3239123684, 0.2774408459663391, 0.5393194556236267, -0.3972757160663605, 0.6887185573577881, 0.9999979734420776, -0.000019567087292671204, -0.0013947635889053345, 0.0014607319608330727, 0.08454859256744385, -0.025705993175506592, -0.009912073612213135, 10.140050888061523, -3.099649429321289, -1.2037174701690674, -0.26907771825790405, -19.180158615112305, 20.087324142456055, -1.03125, -0.051513671875, -0.490478515625, 0, 
500, 3239132017, 0.27633148431777954, 0.5393523573875427, -0.39848703145980835, 0.6884389519691467, 0.9999984502792358, -0.00031593721359968185, -0.0009587844833731651, 0.0014564674347639084, 0.08557510375976562, -0.024308860301971436, -0.0067729949951171875, 10.264402389526367, -2.9318244457244873, -0.8235214948654175, -4.344624996185303, -13.184767723083496, 20.028676986694336, -1.0341796875, -0.052734375, -0.488037109375, 0, 
501, 3239140350, 0.2755291759967804, 0.5390940308570862, -0.39967626333236694, 0.6882734894752502, 0.9999988079071045, -0.00048781465739011765, -0.0005255667492747307, 0.0013505127280950546, 0.08424985408782959, -0.02720409631729126, -0.0076446533203125, 10.105517387390137, -3.277749538421631, -0.9242628216743469, -6.7082037925720215, -7.227352619171143, 18.57163429260254, -1.03369140625, -0.048583984375, -0.485595703125, 0, 
502, 3239148683, 0.2750912308692932, 0.5385646820068359, -0.40061062574386597, 0.6883198618888855, 0.9999992251396179, -0.0005124220624566078, -0.00005168002098798752, 0.0011592358350753784, 0.07959085702896118, -0.03354281187057495, -0.0093192458152771, 9.546555519104004, -4.035796642303467, -1.1209125518798828, -7.04659366607666, -0.7106799483299255, 15.941279411315918, -1.037109375, -0.044921875, -0.488037109375, 0, 
503, 3239157016, 0.2748962938785553, 0.5378481149673462, -0.4011949896812439, 0.6886175870895386, 0.9999994039535522, -0.00033661816269159317, 0.00045959465205669403, 0.0009144917130470276, 0.07466280460357666, -0.037867188453674316, -0.006516218185424805, 8.956090927124023, -4.552183151245117, -0.7793871164321899, -4.629018783569336, 6.32013463973999, 12.575671195983887, -1.03466796875, -0.0439453125, -0.489013671875, 0, 
504, 3239165349, 0.27477627992630005, 0.5371611714363098, -0.40132319927215576, 0.6891269087791443, 0.9999995231628418, 0.000013668090105056763, 0.0006551910191774368, 0.0006967447698116302, 0.07153725624084473, -0.03972339630126953, -0.0013150572776794434, 8.581561088562012, -4.773040294647217, -0.15206845104694366, 0.1879572570323944, 9.00988483428955, 9.58131217956543, -1.0361328125, -0.04296875, -0.485107421875, 0, 
505, 3239173682, 0.2746182978153229, 0.5366166830062866, -0.40129658579826355, 0.6896294355392456, 0.9999996423721313, 0.00019748322665691376, 0.0006437525153160095, 0.0005366615951061249, 0.06902027130126953, -0.04041951894760132, 0.0010355114936828613, 8.280065536499023, -4.854977607727051, 0.13058681786060333, 2.7156982421875, 8.852587699890137, 7.379922866821289, -1.03759765625, -0.04345703125, -0.488525390625, 0, 
506, 3239182015, 0.2743728458881378, 0.5363186597824097, -0.4010361433029175, 0.6901102066040039, 0.9999997019767761, 0.00044452399015426636, 0.00042827799916267395, 0.00041067786514759064, 0.0651283860206604, -0.03728985786437988, 0.004149734973907471, 7.813716888427734, -4.477878093719482, 0.5031961798667908, 6.112889289855957, 5.889482021331787, 5.6474528312683105, -1.03759765625, -0.03955078125, -0.487548828125, 0, 
507, 3239190348, 0.2737974226474762, 0.5364367961883545, -0.4008907377719879, 0.6903312802314758, 0.9999997615814209, 0.0005748160183429718, -0.0000959271565079689, 0.00040294043719768524, 0.06491905450820923, -0.028913676738739014, 0.006877541542053223, 7.789266586303711, -3.4724693298339844, 0.8265971541404724, 7.904604434967041, -1.319145917892456, 5.541051387786865, -1.040283203125, -0.0419921875, -0.490966796875, 0, 
508, 3239198681, 0.2730550169944763, 0.5368295311927795, -0.40080222487449646, 0.6903715133666992, 0.9999995827674866, 0.0006049517542123795, -0.0005311230197548866, 0.000447932630777359, 0.0718039870262146, -0.020812034606933594, 0.003738105297088623, 8.61595630645752, -2.501072645187378, 0.4455772340297699, 8.319018363952637, -7.303759574890137, 6.159763813018799, -1.037353515625, -0.04052734375, -0.489501953125, 0, 
509, 3239207014, 0.27213844656944275, 0.5372618436813354, -0.400757372379303, 0.6904230713844299, 0.999999463558197, 0.000707533210515976, -0.0005688657984137535, 0.0005094930529594421, 0.07803565263748169, -0.014843761920928955, -0.00008600950241088867, 9.36374568939209, -1.7860538959503174, -0.01434608455747366, 9.729670524597168, -7.822778701782227, 7.006313323974609, -1.035400390625, -0.03759765625, -0.490478515625, 0, 
510, 3239215347, 0.2713916599750519, 0.5375145077705383, -0.40071460604667664, 0.6905450820922852, 0.9999995827674866, 0.0005703680217266083, -0.00040474068373441696, 0.000553768128156662, 0.07952868938446045, -0.012985289096832275, -0.0030202865600585938, 9.542801856994629, -1.5638504028320312, -0.3654545843601227, 7.8434367179870605, -5.565806865692139, 7.615164279937744, -1.03662109375, -0.03857421875, -0.486083984375, 0, 
511, 3239223680, 0.27075764536857605, 0.5374687910079956, -0.4007442593574524, 0.6908125877380371, 0.9999997019767761, 0.0004613194614648819, -0.000026513822376728058, 0.0006069522351026535, 0.08007544279098511, -0.014317989349365234, -0.007036268711090088, 9.608345031738281, -1.724600076675415, -0.843833863735199, 6.343852519989014, -0.3646058440208435, 8.346527099609375, -1.03955078125, -0.0400390625, -0.485595703125, 0, 
512, 3239232013, 0.27038082480430603, 0.5370683670043945, -0.40068191289901733, 0.691307544708252, 0.9999996423721313, 0.00035748444497585297, 0.00040036626160144806, 0.000650184229016304, 0.07693582773208618, -0.01749509572982788, -0.006412386894226074, 9.231603622436523, -2.1058120727539062, -0.7650419473648071, 4.915960788726807, 5.50565242767334, 8.941033363342285, -1.037353515625, -0.03759765625, -0.488037109375, 0, 
513, 3239240346, 0.26997947692871094, 0.5364600419998169, -0.4006144106388092, 0.6919754147529602, 0.9999994039535522, 0.00041325949132442474, 0.0007054023444652557, 0.0007335841655731201, 0.07132166624069214, -0.022893071174621582, -0.0037707090377807617, 8.557265281677246, -2.7536659240722656, -0.445415735244751, 5.68295431137085, 9.700368881225586, 10.087911605834961, -1.0400390625, -0.0380859375, -0.485107421875, 0, 
514, 3239248679, 0.26951709389686584, 0.5358273386955261, -0.4005051553249359, 0.6927087306976318, 0.9999992847442627, 0.00046859588474035263, 0.000667414627969265, 0.000841616652905941, 0.06716418266296387, -0.027711451053619385, -0.0006463527679443359, 8.05727767944336, -3.3323123455047607, -0.07063953578472137, 6.443914890289307, 9.177978515625, 11.573526382446289, -1.035400390625, -0.033447265625, -0.488525390625, 0, 
515, 3239257012, 0.2687099575996399, 0.5354381203651428, -0.40044739842414856, 0.6933562755584717, 0.9999992847442627, 0.0006771814078092575, 0.0003850571811199188, 0.000926777720451355, 0.06476485729217529, -0.031166017055511475, 0.0031799674034118652, 7.768490314483643, -3.746987819671631, 0.38711729645729065, 9.312288284301758, 5.295130252838135, 12.744623184204102, -1.036865234375, -0.033203125, -0.490478515625, 0, 
516, 3239265345, 0.2676198482513428, 0.5353574156761169, -0.40022432804107666, 0.6939687132835388, 0.9999990463256836, 0.000983821228146553, -5.951151251792908e-7, 0.0009617675095796585, 0.06509643793106079, -0.03279799222946167, 0.006146430969238281, 7.808068752288818, -3.942753314971924, 0.7415002584457397, 13.529060363769531, -0.008183752186596394, 13.225789070129395, -1.039306640625, -0.0361328125, -0.489990234375, 0, 
517, 3239273678, 0.2661144435405731, 0.5356763601303101, -0.39988401532173157, 0.6944975852966309, 0.9999985098838806, 0.0013909246772527695, -0.000371602363884449, 0.0009372346103191376, 0.06648743152618408, -0.03300362825393677, 0.006169259548187256, 7.9753737449646, -3.9670379161834717, 0.7428877949714661, 19.127361297607422, -5.110105514526367, 12.888421058654785, -1.036865234375, -0.03515625, -0.489501953125, 0, 
518, 3239282011, 0.2642820179462433, 0.5363116264343262, -0.3991587460041046, 0.6951239109039307, 0.9999974966049194, 0.0019268188625574112, -0.0006531840190291405, 0.0009251125156879425, 0.0684201717376709, -0.03271615505218506, 0.004927575588226318, 8.207493782043457, -3.9325640201568604, 0.5935444831848145, 26.496747970581055, -8.982292175292969, 12.72173023223877, -1.039306640625, -0.0322265625, -0.486083984375, 0, 
519, 3239290344, 0.26204946637153625, 0.5373358726501465, -0.39839956164360046, 0.6956135034561157, 0.9999964833259583, 0.00224362313747406, -0.001064046286046505, 0.0009162053465843201, 0.07174617052078247, -0.032614171504974365, 0.00619584321975708, 8.607089042663574, -3.9200751781463623, 0.7431565523147583, 30.853303909301758, -14.632288932800293, 12.59924602508545, -1.038818359375, -0.03173828125, -0.486083984375, 0, 
520, 3239298677, 0.2597290575504303, 0.5386254787445068, -0.39745664596557617, 0.6960256695747375, 0.999995768070221, 0.0024269241839647293, -0.001360504887998104, 0.000829620286822319, 0.07572329044342041, -0.03170508146286011, 0.0047623515129089355, 9.0847749710083, -3.8109192848205566, 0.5683799386024475, 33.37398147583008, -18.70905876159668, 11.4085693359375, -1.04248046875, -0.03125, -0.482177734375, 0, 
521, 3239307010, 0.25728657841682434, 0.5400853753089905, -0.39640724658966064, 0.696399986743927, 0.9999952912330627, 0.0026270169764757156, -0.001438208855688572, 0.00069393590092659, 0.0800294280052185, -0.029706060886383057, 0.0034456849098205566, 9.602033615112305, -3.5704493522644043, 0.4090588688850403, 36.125579833984375, -19.77761459350586, 9.542702674865723, -1.04248046875, -0.0322265625, -0.478271484375, 0, 
522, 3239315343, 0.25497838854789734, 0.5415695905685425, -0.3950628638267517, 0.6968600749969482, 0.9999951124191284, 0.0027691181749105453, -0.001361641101539135, 0.0005392357707023621, 0.08150511980056763, -0.028084218502044678, 0.0036906003952026367, 9.779788970947266, -3.3742892742156982, 0.4389115869998932, 38.07969284057617, -18.724689483642578, 7.415332317352295, -1.04296875, -0.03076171875, -0.477783203125, 0, 
523, 3239323676, 0.25270333886146545, 0.5430343151092529, -0.3936947286128998, 0.6973229050636292, 0.999995231628418, 0.0027952268719673157, -0.0012452555820345879, 0.0004201773554086685, 0.07985419034957886, -0.02900785207748413, -0.00007742643356323242, 9.58141040802002, -3.4851343631744385, -0.01148890145123005, 38.438724517822266, -17.124204635620117, 5.7780938148498535, -1.04248046875, -0.0322265625, -0.471923828125, 0, 
524, 3239332009, 0.2505646347999573, 0.5444075465202332, -0.39210817217826843, 0.697917640209198, 0.999995231628418, 0.0028709247708320618, -0.0010830992832779884, 0.0003670156002044678, 0.07599812746047974, -0.02880537509918213, 0.00013381242752075195, 9.118889808654785, -3.460080146789551, 0.016107836738228798, 39.47969436645508, -14.894303321838379, 5.047036647796631, -1.0458984375, -0.03662109375, -0.470947265625, 0, 
525, 3239340342, 0.2482803910970688, 0.545803964138031, -0.3906037509441376, 0.6984866857528687, 0.9999950528144836, 0.0029207170009613037, -0.0011070528998970985, 0.0004027150571346283, 0.07565498352050781, -0.028797388076782227, -0.0028882622718811035, 9.077183723449707, -3.460495948791504, -0.3465574383735657, 40.1644172668457, -15.22370433807373, 5.537960529327393, -1.04541015625, -0.0341796875, -0.4677734375, 0, 
526, 3239348675, 0.2460927516222, 0.5470963716506958, -0.38898390531539917, 0.6991534233093262, 0.9999951124191284, 0.0029287952929735184, -0.0009983507916331291, 0.00043190643191337585, 0.07610273361206055, -0.029514551162719727, -0.005013108253479004, 9.130558967590332, -3.5476009845733643, -0.600333034992218, 40.27550506591797, -13.728879928588867, 5.939387321472168, -1.043701171875, -0.037841796875, -0.4619140625, 0, 
527, 3239357008, 0.2438235729932785, 0.5483475923538208, -0.3874562084674835, 0.6998162865638733, 0.9999951720237732, 0.0029307883232831955, -0.0009389733895659447, 0.0004545319825410843, 0.07640033960342407, -0.030458390712738037, -0.005978822708129883, 9.166069984436035, -3.6614253520965576, -0.7153750658035278, 40.30290985107422, -12.912348747253418, 6.250524044036865, -1.047119140625, -0.03955078125, -0.4619140625, 0, 
528, 3239365341, 0.2417454570531845, 0.5494890213012695, -0.3858018219470978, 0.7005555629730225, 0.9999954104423523, 0.002884073182940483, -0.0008023129776120186, 0.0004122592508792877, 0.07748651504516602, -0.03038930892944336, -0.0038892626762390137, 9.296876907348633, -3.6520321369171143, -0.46367165446281433, 39.660499572753906, -11.033053398132324, 5.669207572937012, -1.045654296875, -0.03857421875, -0.45703125, 0, 
529, 3239373674, 0.2396521121263504, 0.5506250262260437, -0.38416919112205505, 0.7012794613838196, 0.9999954700469971, 0.0029055941849946976, -0.0007252423092722893, 0.00032765790820121765, 0.07719123363494873, -0.029962003231048584, -0.0022552013397216797, 9.261943817138672, -3.599407434463501, -0.26689592003822327, 39.956443786621094, -9.973211288452148, 4.5058064460754395, -1.050537109375, -0.0400390625, -0.45654296875, 0, 
530, 3239382007, 0.2376917004585266, 0.5518585443496704, -0.3823503255844116, 0.7019708752632141, 0.9999953508377075, 0.0029381606727838516, -0.0008086049929261208, 0.00019190087914466858, 0.07808828353881836, -0.02865356206893921, -0.000016987323760986328, 9.370306968688965, -3.4403674602508545, 0.0004902493674308062, 40.40428924560547, -11.119579315185547, 2.6389362812042236, -1.049072265625, -0.0419921875, -0.4501953125, 0, 
531, 3239390340, 0.23578226566314697, 0.5532054305076599, -0.38060489296913147, 0.7025030851364136, 0.9999955296516418, 0.0028618071228265762, -0.000877077691257, 0.000004500150680541992, 0.08041077852249146, -0.027371227741241455, 0.0006999969482421875, 9.649738311767578, -3.284480333328247, 0.08494056761264801, 39.35430145263672, -12.06118392944336, 0.0618840754032135, -1.051025390625, -0.044921875, -0.4501953125, 0, 
532, 3239398673, 0.23425178229808807, 0.5544881820678711, -0.3787324130535126, 0.7030155658721924, 0.9999960660934448, 0.0026816334575414658, -0.0007654605433344841, -0.00020159687846899033, 0.08128756284713745, -0.026819825172424316, -0.000046193599700927734, 9.755542755126953, -3.216557502746582, -0.004382880870252848, 36.876625061035156, -10.52627182006836, -2.7722702026367188, -1.04638671875, -0.0498046875, -0.4482421875, 0, 
533, 3239407006, 0.2328050136566162, 0.5557036399841309, -0.37691837549209595, 0.703511118888855, 0.9999963641166687, 0.002609606832265854, -0.0006105257198214531, -0.0003205006942152977, 0.08106935024261475, -0.028466761112213135, -0.0021699070930480957, 9.729645729064941, -3.4137110710144043, -0.2574320137500763, 35.886146545410156, -8.39567756652832, -4.407382488250732, -1.04736328125, -0.04833984375, -0.4453125, 0, 
534, 3239415339, 0.2316131591796875, 0.5567737817764282, -0.37495723366737366, 0.7041060924530029, 0.9999966025352478, 0.002537548542022705, -0.0004216441884636879, -0.0003900984302163124, 0.08055788278579712, -0.028450489044189453, -0.0022835731506347656, 9.668547630310059, -3.4111170768737793, -0.26945769786834717, 34.89523696899414, -5.798262596130371, -5.36445951461792, -1.048828125, -0.04931640625, -0.447265625, 0, 
535, 3239423672, 0.23045966029167175, 0.5578047633171082, -0.37317898869514465, 0.7046133279800415, 0.9999970197677612, 0.002383776009082794, -0.0003686780110001564, -0.00043738167732954025, 0.0790359377861023, -0.02905142307281494, -0.002418696880340576, 9.486113548278809, -3.482844114303589, -0.2854361832141876, 32.78062057495117, -5.069894790649414, -6.014676570892334, -1.0478515625, -0.05078125, -0.4423828125, 0, 
536, 3239432005, 0.22950029373168945, 0.5588080286979675, -0.3712921738624573, 0.705128014087677, 0.9999971389770508, 0.0023100003600120544, -0.00034955423325300217, -0.0005064131692051888, 0.07947570085525513, -0.028902053833007812, 0.00010693073272705078, 9.539228439331055, -3.4635157585144043, 0.017512351274490356, 31.766082763671875, -4.806912899017334, -6.963965892791748, -1.04931640625, -0.0546875, -0.4423828125, 0, 
537, 3239440338, 0.22847864031791687, 0.5599396824836731, -0.3694596290588379, 0.7055245637893677, 0.9999970197677612, 0.0023318398743867874, -0.00043575186282396317, -0.0006273137405514717, 0.07982009649276733, -0.025547444820404053, 0.0036517977714538574, 9.580907821655273, -3.0587830543518066, 0.44120195508003235, 32.06641387939453, -5.9922637939453125, -8.62653636932373, -1.048828125, -0.06005859375, -0.4404296875, 0, 
538, 3239448671, 0.22756342589855194, 0.5611298680305481, -0.3673899173736572, 0.7059553265571594, 0.9999966621398926, 0.0024258680641651154, -0.0004701698198914528, -0.0007289489731192589, 0.0807068943977356, -0.02328360080718994, 0.0041967034339904785, 9.687488555908203, -2.78584885597229, 0.5058446526527405, 33.35945510864258, -6.465565204620361, -10.024181365966797, -1.05078125, -0.0634765625, -0.435546875, 0, 
539, 3239457004, 0.22652475535869598, 0.5623414516448975, -0.3653116822242737, 0.7064036130905151, 0.9999963641166687, 0.002552330493927002, -0.0004117535427212715, -0.000773387961089611, 0.08118712902069092, -0.021949946880340576, 0.0034970641136169434, 9.745049476623535, -2.625501871109009, 0.4223642349243164, 35.098506927490234, -5.662250995635986, -10.635286331176758, -1.048828125, -0.06396484375, -0.4375, 0, 
540, 3239465337, 0.2255309820175171, 0.5634424090385437, -0.3630509078502655, 0.7070096135139465, 0.9999961853027344, 0.002648642286658287, -0.00029406044632196426, -0.0007089534774422646, 0.08016198873519897, -0.02160930633544922, 0.0041228532791137695, 9.621803283691406, -2.5850911140441895, 0.49879181385040283, 36.422950744628906, -4.043788909912109, -9.749213218688965, -1.051513671875, -0.06787109375, -0.435546875, 0, 
541, 3239473670, 0.22442534565925598, 0.5644344091415405, -0.3609827160835266, 0.7076290249824524, 0.9999964237213135, 0.0025953715667128563, -0.00018646754324436188, -0.0006012581288814545, 0.08031773567199707, -0.021276414394378662, 0.004778683185577393, 9.640151977539062, -2.5459933280944824, 0.578281819820404, 35.69038772583008, -2.564218282699585, -8.268233299255371, -1.050537109375, -0.07177734375, -0.435546875, 0, 
542, 3239482003, 0.2234882265329361, 0.5652400255203247, -0.3589550852775574, 0.7083136439323425, 0.9999969601631165, 0.002413736656308174, -0.00007301848381757736, -0.0004937043413519859, 0.07769978046417236, -0.022262096405029297, 0.004437506198883057, 9.325704574584961, -2.6656606197357178, 0.5382890105247498, 33.192623138427734, -1.004117488861084, -6.7891998291015625, -1.049072265625, -0.0703125, -0.43310546875, 0, 
543, 3239490336, 0.22252915799617767, 0.5659857392311096, -0.3572244346141815, 0.7088947892189026, 0.9999974966049194, 0.002204548567533493, -0.00005658622831106186, -0.0004331851378083229, 0.07640016078948975, -0.023770272731781006, 0.004271447658538818, 9.169646263122559, -2.8474552631378174, 0.5183441638946533, 30.315956115722656, -0.7781482338905334, -5.956966400146484, -1.051513671875, -0.0751953125, -0.43115234375, 0, 
544, 3239498669, 0.22184623777866364, 0.5666474103927612, -0.35564881563186646, 0.7093724012374878, 0.9999982118606567, 0.001843377947807312, -0.00009787362068891525, -0.0004131188616156578, 0.07545226812362671, -0.024478018283843994, 0.005878627300262451, 9.055914878845215, -2.932438611984253, 0.7099865674972534, 25.34929656982422, -1.3459135293960571, -5.681023120880127, -1.047119140625, -0.076171875, -0.43115234375, 0, 
545, 3239507002, 0.22113986313343048, 0.5674036741256714, -0.35436683893203735, 0.7096298933029175, 0.9999985694885254, 0.0016303248703479767, -0.00025690626353025436, -0.00043469201773405075, 0.07428067922592163, -0.023470282554626465, 0.007506728172302246, 8.915496826171875, -2.811187267303467, 0.9031484127044678, 22.419483184814453, -3.532857656478882, -5.977686405181885, -1.047119140625, -0.076171875, -0.4306640625, 0, 
546, 3239515335, 0.22049972414970398, 0.5683021545410156, -0.3531308174133301, 0.7097263336181641, 0.9999986290931702, 0.001495329663157463, -0.0005420083180069923, -0.00041985418647527695, 0.07600164413452148, -0.02183973789215088, 0.00793302059173584, 9.122179985046387, -2.6156094074249268, 0.9509707689285278, 20.563093185424805, -7.453450679779053, -5.7736430168151855, -1.051025390625, -0.07958984375, -0.427734375, 0, 
547, 3239523668, 0.21969889104366302, 0.5693508982658386, -0.35211819410324097, 0.7096369862556458, 0.9999986290931702, 0.0014340002089738846, -0.0007556146010756493, -0.0003962339833378792, 0.07616531848907471, -0.018414556980133057, 0.006835877895355225, 9.141690254211426, -2.2050604820251465, 0.8166150450706482, 19.719717025756836, -10.390867233276367, -5.448829650878906, -1.050537109375, -0.08154296875, -0.4248046875, 0, 
548, 3239532001, 0.21889394521713257, 0.5704764127731323, -0.3511475622653961, 0.7094627022743225, 0.9999985694885254, 0.001355145126581192, -0.0009736074134707451, -0.0002921363338828087, 0.079414963722229, -0.013659179210662842, 0.005512833595275879, 9.531291961669922, -1.6355009078979492, 0.6545282602310181, 18.635339736938477, -13.388606071472168, -4.017326354980469, -1.048095703125, -0.08447265625, -0.42431640625, 0, 
549, 3239540334, 0.2179565131664276, 0.5715346336364746, -0.3505215048789978, 0.7092092633247375, 0.9999988079071045, 0.001181064173579216, -0.0009902352467179298, -0.00011740904301404953, 0.08394801616668701, -0.009435892105102539, 0.00357210636138916, 10.074718475341797, -1.130670428276062, 0.42004895210266113, 16.241453170776367, -13.617262840270996, -1.6145555973052979, -1.052001953125, -0.083984375, -0.421875, 0, 
550, 3239548667, 0.2171892523765564, 0.5722809433937073, -0.35008448362350464, 0.7090587019920349, 0.9999992847442627, 0.0008804667741060257, -0.0007943036034703255, 0.00012358836829662323, 0.08911758661270142, -0.008543074131011963, 0.0000445246696472168, 10.694412231445312, -1.0265376567840576, -0.0022970354184508324, 12.107772827148438, -10.922897338867188, 1.6995302438735962, -1.051513671875, -0.08251953125, -0.420166015625, 0, 
551, 3239557000, 0.2165939211845398, 0.5725629925727844, -0.35008060932159424, 0.7090149521827698, 0.9999998211860657, 0.00044832006096839905, -0.00033419299870729446, 0.0003207065165042877, 0.09156018495559692, -0.010796070098876953, -0.003040313720703125, 10.987122535705566, -1.2992830276489258, -0.36795574426651, 6.165090084075928, -4.595667839050293, 4.410207748413086, -1.05322265625, -0.08203125, -0.419677734375, 0, 
552, 3239565333, 0.21651139855384827, 0.5722858905792236, -0.35029730200767517, 0.7091568112373352, 0.9999998807907104, -0.00009455066174268723, 0.00019676052033901215, 0.0004336722195148468, 0.08998191356658936, -0.014689743518829346, -0.00313490629196167, 10.797564506530762, -1.7675399780273438, -0.37422358989715576, -1.3002169132232666, 2.7057597637176514, 5.963659763336182, -1.0546875, -0.083984375, -0.418212890625, 0, 
553, 3239573666, 0.21675890684127808, 0.5716199278831482, -0.35094448924064636, 0.7092986106872559, 0.9999995231628418, -0.0006361594423651695, 0.0006045028567314148, 0.0004776492714881897, 0.0876125693321228, -0.01729428768157959, -0.000606238842010498, 10.512992858886719, -2.0803000926971436, -0.06779171526432037, -8.74817180633545, 8.312845230102539, 6.568412780761719, -1.0517578125, -0.08544921875, -0.419189453125, 0, 
554, 3239581999, 0.21747347712516785, 0.5706812739372253, -0.35172560811042786, 0.7094487547874451, 0.9999989867210388, -0.0010911105200648308, 0.000828135758638382, 0.00042461417615413666, 0.0853990912437439, -0.019351661205291748, 0.002612173557281494, 10.247051239013672, -2.3269870281219482, 0.3194236159324646, -15.004451751708984, 11.388142585754395, 5.839099884033203, -1.047119140625, -0.0791015625, -0.42138671875, 0, 
555, 3239590332, 0.21834810078144073, 0.5697305202484131, -0.35267236828804016, 0.7094741463661194, 0.9999986886978149, -0.0013081980869174004, 0.0009010583162307739, 0.0002846755087375641, 0.08283364772796631, -0.02123892307281494, 0.004160523414611816, 9.939263343811035, -2.5522427558898926, 0.5048787593841553, -17.989742279052734, 12.39094352722168, 3.9147276878356934, -1.051513671875, -0.0810546875, -0.42333984375, 0, 
556, 3239598665, 0.2194332480430603, 0.5687675476074219, -0.3534272015094757, 0.7095363736152649, 0.9999986886978149, -0.0013198526576161385, 0.0009319037199020386, 0.0001361072063446045, 0.08174341917037964, -0.023472249507904053, 0.004751801490783691, 9.808688163757324, -2.8188676834106445, 0.5756485462188721, -18.150012969970703, 12.81511402130127, 1.8716840744018555, -1.050048828125, -0.08203125, -0.4248046875, 0, 
557, 3239606998, 0.22042156755924225, 0.567882776260376, -0.3541678190231323, 0.7095694541931152, 0.9999988079071045, -0.0012090383097529411, 0.0009458344429731369, 0.0000676717609167099, 0.08193832635879517, -0.023125946521759033, 0.00556868314743042, 9.832173347473145, -2.77669620513916, 0.6741963028907776, -16.626142501831055, 13.006684303283691, 0.9305911064147949, -1.048583984375, -0.080078125, -0.42626953125, 0, 
558, 3239615331, 0.22135677933692932, 0.5669654011726379, -0.35468366742134094, 0.709754228591919, 0.9999989867210388, -0.0010116221383213997, 0.0009689442813396454, 0.0001174677163362503, 0.08418262004852295, -0.021295487880706787, 0.006072700023651123, 10.101314544677734, -2.557478666305542, 0.7359222173690796, -13.91136360168457, 13.324477195739746, 1.615362286567688, -1.049072265625, -0.080078125, -0.4306640625, 0, 
559, 3239623664, 0.22212134301662445, 0.5660656094551086, -0.35539963841438293, 0.7098754644393921, 0.9999989867210388, -0.001036505214869976, 0.0009334459900856018, 0.0002376902848482132, 0.08499544858932495, -0.01839691400527954, 0.005081772804260254, 10.198768615722656, -2.210768699645996, 0.617048978805542, -14.253546714782715, 12.836322784423828, 3.2686080932617188, -1.048095703125, -0.078125, -0.43115234375, 0, 
560, 3239631997, 0.2230609804391861, 0.5650551915168762, -0.3563290536403656, 0.7099199891090393, 0.9999986290931702, -0.0013779876753687859, 0.0008656177669763565, 0.00035030022263526917, 0.08438390493392944, -0.015251696109771729, 0.00318300724029541, 10.12549877166748, -1.834354281425476, 0.38821929693222046, -18.9494571685791, 11.903579711914062, 4.817168712615967, -1.049560546875, -0.0791015625, -0.43603515625, 0, 
561, 3239640330, 0.2240092009305954, 0.5640467405319214, -0.35778021812438965, 0.7096934914588928, 0.9999979734420776, -0.0018100673332810402, 0.0007166750729084015, 0.0004876069724559784, 0.0827169418334961, -0.011253297328948975, 0.0010942816734313965, 9.925677299499512, -1.3555248975753784, 0.13598036766052246, -24.891223907470703, 9.855390548706055, 6.705349445343018, -1.049560546875, -0.0751953125, -0.435546875, 0, 
562, 3239648663, 0.22523613274097443, 0.5628834962844849, -0.3595846891403198, 0.7093167901039124, 0.9999968409538269, -0.0023457827046513557, 0.000643683597445488, 0.0006007310003042221, 0.08368760347366333, -0.010687530040740967, 0.0008358359336853027, 10.042074203491211, -1.288836121559143, 0.10376061499118805, -32.25815200805664, 8.85164737701416, 8.260982513427734, -1.048583984375, -0.07666015625, -0.43701171875, 0, 
563, 3239656996, 0.22672438621520996, 0.5615522265434265, -0.36176687479019165, 0.7087876796722412, 0.9999955296516418, -0.002813710831105709, 0.0008082650601863861, 0.0005717147141695023, 0.08160287141799927, -0.013673603534698486, -0.0010611414909362793, 9.791897773742676, -1.6461491584777832, -0.12404416501522064, -38.692909240722656, 11.114904403686523, 7.861968517303467, -1.04833984375, -0.07275390625, -0.44189453125, 0, 
564, 3239665329, 0.22864505648612976, 0.5599675178527832, -0.36392393708229065, 0.708320140838623, 0.9999945163726807, -0.0031136581674218178, 0.0010625869035720825, 0.00043899379670619965, 0.0772169828414917, -0.018045783042907715, 0.0005084872245788574, 9.26539134979248, -2.1698455810546875, 0.0641225129365921, -42.81766891479492, 14.612232208251953, 6.03685188293457, -1.04833984375, -0.068359375, -0.44287109375, 0, 
565, 3239673662, 0.23060676455497742, 0.5583387017250061, -0.3660251796245575, 0.7078870534896851, 0.9999944567680359, -0.0030544688925147057, 0.0012679975479841232, 0.0003288630396127701, 0.07335096597671509, -0.024099290370941162, 0.00446707010269165, 8.800833702087402, -2.89656925201416, 0.5383946299552917, -42.00371551513672, 17.43694496154785, 4.522380352020264, -1.04638671875, -0.06494140625, -0.44921875, 0, 
566, 3239681995, 0.2324950397014618, 0.5567036867141724, -0.36763477325439453, 0.7077231407165527, 0.9999955892562866, -0.002608523704111576, 0.0013823024928569794, 0.00024418532848358154, 0.07134860754013062, -0.028982877731323242, 0.008692145347595215, 8.55988597869873, -3.4828908443450928, 1.045852780342102, -35.87126159667969, 19.008811950683594, 3.35792875289917, -1.046875, -0.0615234375, -0.4501953125, 0, 
567, 3239690328, 0.23392562568187714, 0.5552929043769836, -0.3688960373401642, 0.707703709602356, 0.9999971389770508, -0.001960732974112034, 0.0013459213078022003, 0.00025355443358421326, 0.0694960355758667, -0.030668199062347412, 0.013780593872070312, 8.336695671081543, -3.685692071914673, 1.6577423810958862, -26.963117599487305, 18.508502960205078, 3.4867663383483887, -1.043701171875, -0.06201171875, -0.45458984375, 0, 
568, 3239698661, 0.23478291928768158, 0.5542401671409607, -0.36975154280662537, 0.7077985405921936, 0.9999986886978149, -0.0012704068794846535, 0.0009104833006858826, 0.00040022097527980804, 0.07008689641952515, -0.028988003730773926, 0.018009841442108154, 8.407414436340332, -3.484788656234741, 2.164489984512329, -17.470056533813477, 12.520551681518555, 5.503656387329102, -1.046142578125, -0.060546875, -0.46044921875, 0, 
569, 3239706994, 0.2348579615354538, 0.553705632686615, -0.3705640137195587, 0.7077670097351074, 0.9999995231628418, -0.000690157525241375, 0.0003194231539964676, 0.0006326660513877869, 0.0746966004371643, -0.025638043880462646, 0.0183832049369812, 8.961284637451172, -3.0839176177978516, 2.2068145275115967, -9.490728378295898, 4.392560005187988, 8.700133323669434, -1.047119140625, -0.05859375, -0.4560546875, 0, 
570, 3239715327, 0.2345397174358368, 0.5534339547157288, -0.37133508920669556, 0.7076810002326965, 0.9999995231628418, -0.00044288765639066696, -0.00015760678797960281, 0.0008536949753761292, 0.0804436206817627, -0.02049887180328369, 0.017992675304412842, 9.651850700378418, -2.4691972732543945, 2.1565842628479004, -6.090387344360352, -2.1673362255096436, 11.739622116088867, -1.045166015625, -0.05810546875, -0.45654296875, 0, 
571, 3239723660, 0.23401084542274475, 0.5532684326171875, -0.3724469244480133, 0.7074011564254761, 0.9999992251396179, -0.0005745692178606987, -0.00038135144859552383, 0.0010279007256031036, 0.08453375101089478, -0.015585124492645264, 0.01590484380722046, 10.143265724182129, -1.8817205429077148, 1.9037518501281738, -7.901212215423584, -5.24416971206665, 14.135220527648926, -1.046630859375, -0.05517578125, -0.4580078125, 0, 
572, 3239731993, 0.23369093239307404, 0.5529119372367859, -0.3738054633140564, 0.7070689797401428, 0.9999988079071045, -0.0009687049314379692, -0.0003714924678206444, 0.0011538099497556686, 0.08616381883621216, -0.011708974838256836, 0.013402283191680908, 10.33903980255127, -1.4186549186706543, 1.6031179428100586, -13.321188926696777, -5.108595371246338, 15.866667747497559, -1.043701171875, -0.05322265625, -0.45556640625, 0, 
573, 3239740326, 0.2336018830537796, 0.5523166060447693, -0.3756083548069, 0.7066080570220947, 0.999998152256012, -0.001475880853831768, -0.0001810183748602867, 0.001221759244799614, 0.08705300092697144, -0.01046067476272583, 0.011556506156921387, 10.445490837097168, -1.2701061964035034, 1.3830934762954712, -20.295644760131836, -2.4892828464508057, 16.80108070373535, -1.044189453125, -0.05029296875, -0.45556640625, 0, 
574, 3239748659, 0.2339998185634613, 0.5513166785240173, -0.377638041973114, 0.7061753273010254, 0.9999971985816956, -0.002027803100645542, 0.00014017336070537567, 0.0012349672615528107, 0.08521974086761475, -0.012284040451049805, 0.01095348596572876, 10.224762916564941, -1.489452600479126, 1.3129031658172607, -27.88543701171875, 1.9276013374328613, 16.98271369934082, -1.045654296875, -0.0478515625, -0.4541015625, 0, 
575, 3239756992, 0.2347332239151001, 0.5500456690788269, -0.38002490997314453, 0.705642580986023, 0.9999960064888, -0.0025292029604315758, 0.0004276018589735031, 0.0012103822082281113, 0.08262264728546143, -0.016803324222564697, 0.00954669713973999, 9.912177085876465, -2.0313799381256104, 1.1447755098342896, -34.780479431152344, 5.880190372467041, 16.644638061523438, -1.048095703125, -0.044921875, -0.45849609375, 0, 
576, 3239765325, 0.23576755821704865, 0.5485274791717529, -0.3824222981929779, 0.7051842212677002, 0.9999952912330627, -0.002768854610621929, 0.0006469395011663437, 0.0011785589158535004, 0.07836955785751343, -0.02150416374206543, 0.010423600673675537, 9.40086555480957, -2.5951526165008545, 1.2498064041137695, -38.076072692871094, 8.896427154541016, 16.20702362060547, -1.044677734375, -0.0380859375, -0.4619140625, 0, 
577, 3239773658, 0.2367653101682663, 0.547083854675293, -0.38490378856658936, 0.7046207189559937, 0.999995231628418, -0.0027940822765231133, 0.0006094202399253845, 0.0011416077613830566, 0.07441061735153198, -0.025002896785736084, 0.011593937873840332, 8.925354957580566, -3.014538288116455, 1.3883742094039917, -38.42298889160156, 8.380477905273438, 15.698887825012207, -1.047607421875, -0.03662109375, -0.4619140625, 0, 
578, 3239781991, 0.23761960864067078, 0.5458001494407654, -0.38720983266830444, 0.7040649652481079, 0.9999959468841553, -0.0025877570733428, 0.00038094446063041687, 0.0011423639953136444, 0.07317447662353516, -0.02689206600189209, 0.013113081455230713, 8.777003288269043, -3.2412562370300293, 1.5686205625534058, -35.58568572998047, 5.238579273223877, 15.709281921386719, -1.04736328125, -0.03125, -0.46337890625, 0, 
579, 3239790324, 0.23814359307289124, 0.5448743104934692, -0.38954558968544006, 0.7033166289329529, 0.9999964833259583, -0.0023820409551262856, -0.000007183291018009186, 0.001152845099568367, 0.07392776012420654, -0.027774512767791748, 0.01450282335281372, 8.867849349975586, -3.3474409580230713, 1.732393503189087, -32.75676345825195, -0.09878141433000565, 15.853410720825195, -1.0478515625, -0.03125, -0.46337890625, 0, 
580, 3239798657, 0.238491028547287, 0.5442304015159607, -0.39172494411468506, 0.702486515045166, 0.9999969601631165, -0.0021763788536190987, -0.00038524996489286423, 0.0011163093149662018, 0.07618683576583862, -0.02681446075439453, 0.015884757041931152, 9.139915466308594, -3.2322285175323486, 1.8956971168518066, -29.9285888671875, -5.297784805297852, 15.350985527038574, -1.049560546875, -0.0263671875, -0.458984375, 0, 
581, 3239806990, 0.2387101650238037, 0.543891429901123, -0.39397189021110535, 0.7014169692993164, 0.9999969601631165, -0.0021399417892098427, -0.0006975224241614342, 0.001011466607451439, 0.078391432762146, -0.026586472988128662, 0.01716935634613037, 9.405553817749023, -3.204397439956665, 2.0470268726348877, -29.427518844604492, -9.592015266418457, 13.909235000610352, -1.04541015625, -0.022705078125, -0.466064453125, 0, 
582, 3239815323, 0.23905937373638153, 0.5436885952949524, -0.39620280265808105, 0.700197696685791, 0.9999966621398926, -0.002260989509522915, -0.0009177839383482933, 0.0008772257715463638, 0.07883495092391968, -0.027429819107055664, 0.015729904174804688, 9.459405899047852, -3.3042852878570557, 1.8715020418167114, -31.092117309570312, -12.620954513549805, 12.063217163085938, -1.04931640625, -0.0224609375, -0.46044921875, 0, 
583, 3239823656, 0.23948895931243896, 0.5435452461242676, -0.3985195755958557, 0.6988462209701538, 0.9999964833259583, -0.0023693805560469627, -0.0009277975186705589, 0.0007573086768388748, 0.08023393154144287, -0.028109252452850342, 0.012315928936004639, 9.627263069152832, -3.384047269821167, 1.461000680923462, -32.582664489746094, -12.75865650177002, 10.414170265197754, -1.052734375, -0.015625, -0.4609375, 0, 
584, 3239831989, 0.2401089072227478, 0.5432536005973816, -0.40066948533058167, 0.6976299285888672, 0.9999967217445374, -0.0023714853450655937, -0.0007268404588103294, 0.0006799735128879547, 0.08148103952407837, -0.028251290321350098, 0.008834540843963623, 9.776575088500977, -3.3994431495666504, 1.0450297594070435, -32.611602783203125, -9.995184898376465, 9.350690841674805, -1.05224609375, -0.0166015625, -0.458984375, 0, 
585, 3239840322, 0.24072958528995514, 0.542818546295166, -0.40269675850868225, 0.696586549282074, 0.9999972581863403, -0.002219513989984989, -0.00041555892676115036, 0.0006567277014255524, 0.08057302236557007, -0.02793174982070923, 0.006245672702789307, 9.667252540588379, -3.3599672317504883, 0.7380200624465942, -30.521759033203125, -5.7145795822143555, 9.031024932861328, -1.05126953125, -0.01123046875, -0.45849609375, 0, 
586, 3239848655, 0.2414088249206543, 0.5421991944313049, -0.4044572710990906, 0.6958134770393372, 0.9999976754188538, -0.002032926306128502, -0.0001400429755449295, 0.0006652995944023132, 0.07931250333786011, -0.027746737003326416, 0.0038561224937438965, 9.515732765197754, -3.3369998931884766, 0.45465606451034546, -27.95588493347168, -1.9258077144622803, 9.14889907836914, -1.05126953125, -0.01025390625, -0.45849609375, 0, 
587, 3239856988, 0.2420041561126709, 0.5415186882019043, -0.40601375699043274, 0.6952297687530518, 0.9999982714653015, -0.0017516901716589928, 0.00010690465569496155, 0.0006285160779953003, 0.07918137311935425, -0.02749776840209961, 0.0015845894813537598, 9.500041961669922, -3.306187868118286, 0.18537330627441406, -24.08844757080078, 1.4701042175292969, 8.64306640625, -1.05126953125, -0.0087890625, -0.46044921875, 0, 
588, 3239865321, 0.24266652762889862, 0.5407609343528748, -0.40736618638038635, 0.6947974562644958, 0.9999984502792358, -0.0016353046521544456, 0.0002328343689441681, 0.0005941726267337799, 0.0790209174156189, -0.02583301067352295, 0.002231299877166748, 9.480989456176758, -3.1061320304870605, 0.2649126648902893, -22.487966537475586, 3.2018320560455322, 8.170791625976562, -1.052734375, -0.00732421875, -0.4599609375, 0, 
589, 3239873654, 0.2433023750782013, 0.5399974584579468, -0.40888506174087524, 0.6942765116691589, 0.9999982714653015, -0.0017414363101124763, 0.00022537633776664734, 0.0006283670663833618, 0.08118069171905518, -0.023916661739349365, 0.0023377537727355957, 9.740199089050293, -2.8767385482788086, 0.2777281701564789, -23.94744110107422, 3.0992729663848877, 8.641018867492676, -1.05322265625, -0.00634765625, -0.4619140625, 0, 
590, 3239881987, 0.2441484034061432, 0.5390618443489075, -0.4105757474899292, 0.6937086582183838, 0.999997615814209, -0.002067951485514641, 0.0002761939540505409, 0.0006891572847962379, 0.08453816175460815, -0.021367013454437256, 0.004414081573486328, 10.143068313598633, -2.5722296237945557, 0.5272043943405151, -28.43753433227539, 3.7980949878692627, 9.476980209350586, -1.048828125, -0.003662109375, -0.4619140625, 0, 
591, 3239890320, 0.2452084720134735, 0.5378650426864624, -0.41269925236701965, 0.6930031180381775, 0.9999963045120239, -0.002570374868810177, 0.00045458972454071045, 0.0007942318916320801, 0.08799654245376587, -0.019536077976226807, 0.004825711250305176, 10.557878494262695, -2.3543057441711426, 0.5778732299804688, -35.34664535522461, 6.251315116882324, 10.92192268371582, -1.05078125, -0.000732421875, -0.46240234375, 0, 
592, 3239898653, 0.24658764898777008, 0.5363019704818726, -0.4150007665157318, 0.6923505067825317, 0.9999949336051941, -0.0029668472707271576, 0.0007358388975262642, 0.0008862065151333809, 0.08618730306625366, -0.01955568790435791, 0.004265546798706055, 10.340429306030273, -2.3574650287628174, 0.5125232338905334, -40.79877471923828, 10.118932723999023, 12.186721801757812, -1.05029296875, 0.004638671875, -0.463623046875, 0, 
593, 3239906986, 0.24807386100292206, 0.5345250368118286, -0.41755402088165283, 0.6916581392288208, 0.9999938607215881, -0.0032343408092856407, 0.0009350385516881943, 0.0009786579757928848, 0.08223646879196167, -0.02043592929840088, 0.00619131326675415, 9.865675926208496, -2.464456558227539, 0.744267463684082, -44.47724533081055, 12.858243942260742, 13.458078384399414, -1.051025390625, 0.009033203125, -0.468505859375, 0, 
594, 3239915319, 0.24945132434368134, 0.5327450037002563, -0.4201376140117645, 0.6909711956977844, 0.9999938607215881, -0.0032290956005454063, 0.0007972847670316696, 0.0011200271546840668, 0.07671409845352173, -0.02438598871231079, 0.0060582756996154785, 9.202200889587402, -2.939082145690918, 0.7248996496200562, -44.40511703491211, 10.963913917541504, 15.40212631225586, -1.050537109375, 0.011962890625, -0.468994140625, 0, 
595, 3239923652, 0.2505190670490265, 0.5311303734779358, -0.42278170585632324, 0.6902147531509399, 0.9999943971633911, -0.003060402348637581, 0.0005910145118832588, 0.0012383079156279564, 0.07554817199707031, -0.03062206506729126, 0.005157887935638428, 9.061225891113281, -3.6878912448883057, 0.613075852394104, -42.0853157043457, 8.127372741699219, 17.028667449951172, -1.051025390625, 0.017333984375, -0.469970703125, 0, 
596, 3239931985, 0.2511630356311798, 0.5297370553016663, -0.4251749813556671, 0.6895810961723328, 0.9999956488609314, -0.0025881705805659294, 0.00029698386788368225, 0.0013756323605775833, 0.07697778940200806, -0.034565091133117676, 0.0064064860343933105, 9.231768608093262, -4.162652492523193, 0.7608093619346619, -35.591373443603516, 4.083990573883057, 18.91708755493164, -1.050048828125, 0.016357421875, -0.470458984375, 0, 
597, 3239940318, 0.2513093948364258, 0.5286687016487122, -0.4275040030479431, 0.6889074444770813, 0.9999964833259583, -0.002182108350098133, -0.00005438271909952164, 0.001495707780122757, 0.08182227611541748, -0.03592562675476074, 0.008234918117523193, 9.81265926361084, -4.328084945678711, 0.9782733917236328, -30.00737762451172, -0.7478468418121338, 20.56830596923828, -1.052001953125, 0.027099609375, -0.472900390625, 0, 
598, 3239948651, 0.25127479434013367, 0.5277195572853088, -0.4297462999820709, 0.6882525086402893, 0.9999966621398926, -0.0020224014297127724, -0.00027135107666254044, 0.001569073647260666, 0.0871850848197937, -0.03783971071243286, 0.0061896443367004395, 10.455703735351562, -4.558826923370361, 0.7307699918746948, -27.8111572265625, -3.7314984798431396, 21.57719612121582, -1.052490234375, 0.028564453125, -0.467041015625, 0, 
599, 3239956984, 0.25111058354377747, 0.5267916321754456, -0.4319983720779419, 0.6876128911972046, 0.9999968409538269, -0.0019147451967000961, -0.0002489164471626282, 0.0016137948259711266, 0.09210765361785889, -0.03716874122619629, 0.0017783045768737793, 11.046219825744629, -4.478621006011963, 0.20212848484516144, -26.330717086791992, -3.4229869842529297, 22.192180633544922, -1.052490234375, 0.031982421875, -0.472412109375, 0, 
600, 3239965317, 0.2510915696620941, 0.5256406664848328, -0.4341605603694916, 0.6871386766433716, 0.9999967217445374, -0.0019479850307106972, -0.00001007039099931717, 0.0016485992819070816, 0.0953131914138794, -0.03598833084106445, -0.0006583929061889648, 11.430891990661621, -4.33750581741333, -0.08756901323795319, -26.787817001342773, -0.13848349452018738, 22.670799255371094, -1.048095703125, 0.034912109375, -0.469970703125, 0, 
601, 3239973650, 0.25121378898620605, 0.5243150591850281, -0.43652376532554626, 0.6866093277931213, 0.9999961853027344, -0.002193140797317028, 0.00017893314361572266, 0.0016726627945899963, 0.09477436542510986, -0.036207497119903564, -0.001622319221496582, 11.366146087646484, -4.363636016845703, -0.20218409597873688, -30.159099578857422, 2.460609197616577, 23.00171661376953, -1.052490234375, 0.038330078125, -0.474365234375, 0, 
602, 3239981983, 0.2515384554862976, 0.5228673219680786, -0.43893542885780334, 0.6860566735267639, 0.9999957084655762, -0.0024084029719233513, 0.00023970380425453186, 0.0016529038548469543, 0.09423983097076416, -0.03820466995239258, -0.0009270310401916504, 11.301676750183105, -4.603143692016602, -0.119587741792202, -33.119285583496094, 3.2963004112243652, 22.73000144958496, -1.049560546875, 0.042724609375, -0.471435546875, 0, 
603, 3239990316, 0.2518490254878998, 0.521557092666626, -0.44155192375183105, 0.6852608323097229, 0.9999954104423523, -0.0025768810883164406, 0.00005083903670310974, 0.0016012825071811676, 0.09051007032394409, -0.039622366428375244, 0.004087626934051514, 10.85399341583252, -4.773519992828369, 0.47881582379341125, -35.436126708984375, 0.6991159319877625, 22.02012825012207, -1.05322265625, 0.048095703125, -0.473388671875, 0, 
604, 3239998649, 0.2521519660949707, 0.5205212831497192, -0.44418272376060486, 0.6842361092567444, 0.9999953508377075, -0.002651466988027096, -0.0003537507727742195, 0.0014818962663412094, 0.08934879302978516, -0.041663527488708496, 0.00703883171081543, 10.715158462524414, -5.017946720123291, 0.8276166915893555, -36.46179962158203, -4.864624500274658, 20.378381729125977, -1.052734375, 0.053466796875, -0.474853515625, 0, 
605, 3240006982, 0.2522710859775543, 0.5198653340339661, -0.44675928354263306, 0.6830121874809265, 0.9999958276748657, -0.002473284490406513, -0.0006935084238648415, 0.0013119280338287354, 0.09103602170944214, -0.039446115493774414, 0.010148465633392334, 10.919384956359863, -4.751041412353516, 1.198577642440796, -34.011512756347656, -9.536820411682129, 18.041053771972656, -1.0498046875, 0.055908203125, -0.475341796875, 0, 
606, 3240015315, 0.252254843711853, 0.5195131301879883, -0.44902506470680237, 0.6817991733551025, 0.999996542930603, -0.002147180028259754, -0.0009690979495644569, 0.0011582542210817337, 0.09263694286346436, -0.0387721061706543, 0.011163175106048584, 11.112777709960938, -4.668559551239014, 1.3188812732696533, -29.527057647705078, -13.3266019821167, 15.9277925491333, -1.0537109375, 0.058837890625, -0.468017578125, 0, 
607, 3240023648, 0.25191351771354675, 0.5194658041000366, -0.45102643966674805, 0.6806395053863525, 0.9999973773956299, -0.0016597555950284004, -0.0011397497728466988, 0.0010680630803108215, 0.09249007701873779, -0.03739291429519653, 0.011073291301727295, 11.095967292785645, -4.501352787017822, 1.308777928352356, -22.82421112060547, -15.673325538635254, 14.687520980834961, -1.05078125, 0.062255859375, -0.468017578125, 0, 
608, 3240031981, 0.2512812912464142, 0.5196106433868408, -0.45269346237182617, 0.6796552538871765, 0.9999977946281433, -0.0011909259483218193, -0.001314905472099781, 0.0011007282882928848, 0.09089750051498413, -0.037433624267578125, 0.009648323059082031, 10.904706001281738, -4.505568027496338, 1.13818359375, -16.3770751953125, -18.08198356628418, 15.136714935302734, -1.0537109375, 0.065185546875, -0.467041015625, 0, 
609, 3240040314, 0.25028935074806213, 0.5198972225189209, -0.4543018341064453, 0.6787283420562744, 0.9999978542327881, -0.0008664103224873543, -0.001445387490093708, 0.0012133195996284485, 0.08792054653167725, -0.03746885061264038, 0.008037865161895752, 10.546802520751953, -4.510101795196533, 0.945392906665802, -11.914481163024902, -19.876312255859375, 16.685020446777344, -1.054931640625, 0.070556640625, -0.459716796875, 0, 
610, 3240048647, 0.24909472465515137, 0.5202328562736511, -0.45578914880752563, 0.6779130697250366, 0.9999976754188538, -0.0006521325558423996, -0.0015664398670196533, 0.0013451604172587395, 0.08376073837280273, -0.03776592016220093, 0.005795598030090332, 10.046676635742188, -4.5460309982299805, 0.6768361330032349, -8.9678316116333, -21.540971755981445, 18.498037338256836, -1.05517578125, 0.071044921875, -0.463623046875, 0, 
611, 3240056980, 0.247706800699234, 0.5206392407417297, -0.457321435213089, 0.677077054977417, 0.9999974966049194, -0.0005385987460613251, -0.001644020900130272, 0.0014094123616814613, 0.08074724674224854, -0.037957847118377686, 0.0054558515548706055, 9.684700012207031, -4.569121837615967, 0.6363534331321716, -7.406567573547363, -22.607837677001953, 19.38160514831543, -1.057373046875, 0.073974609375, -0.457763671875, 0, 
612, 3240065313, 0.24641858041286469, 0.5209989547729492, -0.458682119846344, 0.6763495206832886, 0.9999977946281433, -0.0004714392125606537, -0.0015482008457183838, 0.0013533839955925941, 0.07852602005004883, -0.03900808095932007, 0.004929244518280029, 9.418076515197754, -4.694153308868408, 0.5747761726379395, -6.48301887512207, -21.290157318115234, 18.611125946044922, -1.057861328125, 0.079833984375, -0.450439453125, 0, 
613, 3240073646, 0.24522627890110016, 0.5213906168937683, -0.4599071145057678, 0.6756489276885986, 0.9999982714653015, -0.0003747781738638878, -0.001400529406964779, 0.0011543966829776764, 0.07747602462768555, -0.040460944175720215, 0.004951298236846924, 9.292719841003418, -4.866436004638672, 0.5793707370758057, -5.153779029846191, -19.259445190429688, 15.874739646911621, -1.057861328125, 0.078857421875, -0.450439453125, 0, 
614, 3240081979, 0.24429506063461304, 0.5216979384422302, -0.4607628583908081, 0.6751658320426941, 0.999998927116394, -0.00021678488701581955, -0.0010971678420901299, 0.0009329300373792648, 0.08033055067062378, -0.04084378480911255, 0.0062674880027771, 9.636305809020996, -4.910582542419434, 0.7405183911323547, -2.9811270236968994, -15.087753295898438, 12.829228401184082, -1.060302734375, 0.082763671875, -0.449951171875, 0, 
615, 3240090312, 0.24335402250289917, 0.5220403671264648, -0.46127986907958984, 0.6748879551887512, 0.9999993443489075, 0.00015433505177497864, -0.0008606882765889168, 0.0007372330874204636, 0.07513928413391113, -0.03878343105316162, 0.010672986507415771, 9.014737129211426, -4.660662651062012, 1.2737507820129395, 2.122344970703125, -11.835790634155273, 10.138092041015625, -1.059326171875, 0.085205078125, -0.445556640625, 0, 
616, 3240098645, 0.24218125641345978, 0.5226359367370605, -0.46156540513038635, 0.6746536493301392, 0.9999989867210388, 0.00047919154167175293, -0.0011341841891407967, 0.0007258765399456024, 0.07249301671981812, -0.036125123500823975, 0.013529419898986816, 8.69819164276123, -4.340763092041016, 1.6157561540603638, 6.589622497558594, -15.596779823303223, 9.98192024230957, -1.061767578125, 0.086181640625, -0.4462890625, 0, 
617, 3240106978, 0.2405075877904892, 0.5235903859138489, -0.46185123920440674, 0.6743165850639343, 0.9999980926513672, 0.0008127186447381973, -0.001591264270246029, 0.0008102282881736755, 0.07236438989639282, -0.03204077482223511, 0.015188813209533691, 8.683853149414062, -3.8505971431732178, 1.8120510578155518, 11.176138877868652, -21.88234519958496, 11.141891479492188, -1.061279296875, 0.083740234375, -0.443359375, 0, 
618, 3240115311, 0.2384028434753418, 0.5248268842697144, -0.4619625508785248, 0.674026370048523, 0.9999968409538269, 0.0012130364775657654, -0.0019840383902192116, 0.00095355324447155, 0.07343852519989014, -0.027031898498535156, 0.013331472873687744, 8.813044548034668, -3.250427007675171, 1.5862908363342285, 16.681133270263672, -27.283605575561523, 13.112836837768555, -1.062255859375, 0.083740234375, -0.43896484375, 0, 
619, 3240123644, 0.23588630557060242, 0.526119589805603, -0.46201425790786743, 0.6738685965538025, 0.9999959468841553, 0.0015735477209091187, -0.002066466026008129, 0.0011406037956476212, 0.07370734214782715, -0.023364722728729248, 0.009284913539886475, 8.844326972961426, -2.812220573425293, 1.1003738641738892, 21.638729095458984, -28.417123794555664, 15.685076713562012, -1.063232421875, 0.0869140625, -0.4326171875, 0, 
620, 3240131977, 0.2333114892244339, 0.527206540107727, -0.4619467854499817, 0.673961877822876, 0.9999958872795105, 0.0017223767936229706, -0.0018562935292720795, 0.0013361535966396332, 0.07192182540893555, -0.023899495601654053, 0.0031987428665161133, 8.627833366394043, -2.878927230834961, 0.372793585062027, 23.685359954833984, -25.526926040649414, 18.374191284179688, -1.0634765625, 0.0869140625, -0.4296875, 0, 
621, 3240140310, 0.23072704672813416, 0.528058648109436, -0.4620109796524048, 0.6741401553153992, 0.9999961853027344, 0.0016501182690262794, -0.0016329530626535416, 0.0014785220846533775, 0.06837433576583862, -0.027207612991333008, -0.0018050074577331543, 8.200060844421387, -3.2775251865386963, -0.22460506856441498, 22.691694259643555, -22.455644607543945, 20.33197784423828, -1.064453125, 0.09130859375, -0.42578125, 0, 
622, 3240148643, 0.22831344604492188, 0.5287663340568542, -0.4620627462863922, 0.6743718981742859, 0.9999966025352478, 0.00153281819075346, -0.0014808326959609985, 0.0014976253733038902, 0.06559497117996216, -0.030503511428833008, -0.005236685276031494, 7.865280628204346, -3.6733381748199463, -0.6344719529151917, 21.078630447387695, -20.363750457763672, 20.59467315673828, -1.06396484375, 0.09033203125, -0.4248046875, 0, 
623, 3240156976, 0.2259656935930252, 0.529543936252594, -0.46230560541152954, 0.6743859648704529, 0.9999968409538269, 0.0013112109154462814, -0.0016018794849514961, 0.001412196084856987, 0.06565797328948975, -0.03176522254943848, -0.0060097575187683105, 7.872714519500732, -3.8240692615509033, -0.7288249731063843, 18.031185150146484, -22.0283260345459, 19.419885635375977, -1.0673828125, 0.0927734375, -0.421875, 0, 
624, 3240165309, 0.22384338080883026, 0.5305076241493225, -0.46252989768981934, 0.6741825342178345, 0.999997079372406, 0.0011191293597221375, -0.0017884941771626472, 0.0011749714612960815, 0.06813162565231323, -0.03034520149230957, -0.00864487886428833, 8.169967651367188, -3.6523566246032715, -1.0479837656021118, 15.389765739440918, -24.594568252563477, 16.15768051147461, -1.06689453125, 0.0947265625, -0.41552734375, 0, 
625, 3240173642, 0.22195065021514893, 0.5316094756126404, -0.46278083324432373, 0.6737679243087769, 0.9999974966049194, 0.0009402409195899963, -0.001837308518588543, 0.000861290842294693, 0.07419300079345703, -0.0269242525100708, -0.011564254760742188, 8.898167610168457, -3.2400248050689697, -1.401094675064087, 12.929770469665527, -25.265840530395508, 11.844083786010742, -1.0673828125, 0.09814453125, -0.4150390625, 0, 
626, 3240181975, 0.22056114673614502, 0.5325754880905151, -0.46300625801086426, 0.6733063459396362, 0.9999983310699463, 0.0006104782223701477, -0.0015882058069109917, 0.0006228182464838028, 0.07794439792633057, -0.024162590503692627, -0.013032019138336182, 9.349409103393555, -2.9063990116119385, -1.576967716217041, 8.395018577575684, -21.840282440185547, 8.564713478088379, -1.06884765625, 0.095703125, -0.40966796875, 0, 
627, 3240190308, 0.2195354402065277, 0.5333081483840942, -0.46346789598464966, 0.6727437973022461, 0.9999989867210388, 0.00018871203064918518, -0.0013080677017569542, 0.0005282964557409286, 0.07801204919815063, -0.02295398712158203, -0.01322561502456665, 9.358282089233398, -2.759836435317993, -1.59886634349823, 2.5950818061828613, -17.987951278686523, 7.264892578125, -1.0673828125, 0.09765625, -0.408203125, 0, 
628, 3240198641, 0.21892140805721283, 0.5337135791778564, -0.4641852378845215, 0.6721274852752686, 0.9999992251396179, -0.00032882392406463623, -0.001042420044541359, 0.0005885856226086617, 0.07778578996658325, -0.025780975818634033, -0.012354791164398193, 9.331278800964355, -3.0988731384277344, -1.493440866470337, -4.521834850311279, -14.334881782531738, 8.093958854675293, -1.0703125, 0.10009765625, -0.40673828125, 0, 
629, 3240206974, 0.21858498454093933, 0.5337925553321838, -0.4652264714241028, 0.6714540123939514, 0.9999992251396179, -0.000761040486395359, -0.0007286379113793373, 0.0006575789302587509, 0.07598024606704712, -0.02885192632675171, -0.008616149425506592, 9.114947319030762, -3.467600107192993, -1.0433021783828735, -10.465479850769043, -10.01989459991455, 9.042723655700684, -1.070556640625, 0.0986328125, -0.404296875, 0, 
630, 3240215307, 0.21858689188957214, 0.5336172580718994, -0.4663741886615753, 0.6707962155342102, 0.9999990463256836, -0.0010931016877293587, -0.0004822993651032448, 0.0006652344018220901, 0.07434284687042236, -0.03312838077545166, -0.007885456085205078, 8.918381690979004, -3.9804813861846924, -0.9549769163131714, -15.031832695007324, -6.632359981536865, 9.147998809814453, -1.06689453125, 0.10107421875, -0.40380859375, 0, 
631, 3240223640, 0.21873818337917328, 0.5332885384559631, -0.4675476551055908, 0.6701911687850952, 0.9999991059303284, -0.001165362074971199, -0.00021575205028057098, 0.0006086630746722221, 0.07188880443572998, -0.03622257709503174, -0.005942106246948242, 8.624180793762207, -4.351332187652588, -0.7200605273246765, -16.025524139404297, -2.966923236846924, 8.370055198669434, -1.06787109375, 0.10009765625, -0.40380859375, 0, 
632, 3240231973, 0.2189382165670395, 0.5329463481903076, -0.46852025389671326, 0.6697186827659607, 0.9999992847442627, -0.001031319610774517, -0.00014066416770219803, 0.0005570836365222931, 0.06823331117630005, -0.038947463035583496, -0.0028711557388305664, 8.18565845489502, -4.678107261657715, -0.3505559265613556, -14.182232856750488, -1.9343488216400146, 7.660758018493652, -1.072509765625, 0.10302734375, -0.40234375, 0, 
633, 3240240306, 0.2189301699399948, 0.5327708721160889, -0.46948638558387756, 0.669184148311615, 0.9999994039535522, -0.0008739279583096504, -0.0003078477457165718, 0.0005473103374242783, 0.06849372386932373, -0.04308772087097168, -0.0029042959213256836, 8.216626167297363, -5.174940586090088, -0.35560551285743713, -12.01785659790039, -4.233381271362305, 7.526360511779785, -1.071533203125, 0.103515625, -0.40234375, 0, 
634, 3240248639, 0.2188163697719574, 0.5327706336975098, -0.47029221057891846, 0.668655514717102, 0.9999995231628418, -0.0007038312032818794, -0.0005100565031170845, 0.0005056317895650864, 0.06748032569885254, -0.04508250951766968, -0.0007156133651733398, 8.095174789428711, -5.414157867431641, -0.09383199363946915, -9.678763389587402, -7.014062404632568, 6.953216075897217, -1.06787109375, 0.1064453125, -0.40283203125, 0, 
635, 3240256972, 0.2184116095304489, 0.53309565782547, -0.47103646397590637, 0.66800457239151, 0.999999463558197, -0.00045922305434942245, -0.0008430713787674904, 0.00042852386832237244, 0.06830060482025146, -0.045358479022979736, 0.00010144710540771484, 8.194079399108887, -5.446742534637451, 0.002786611206829548, -6.315023899078369, -11.593528747558594, 5.892862796783447, -1.07373046875, 0.1083984375, -0.404296875, 0, 
636, 3240265305, 0.21789146959781647, 0.5336054563522339, -0.47149422764778137, 0.6674442887306213, 0.999999463558197, -0.00015807803720235825, -0.0009828293696045876, 0.00034457817673683167, 0.07063210010528564, -0.04508793354034424, -0.002039968967437744, 8.474096298217773, -5.413631439208984, -0.25393375754356384, -2.173816204071045, -13.515416145324707, 4.738480091094971, -1.071533203125, 0.10986328125, -0.3974609375, 0, 
637, 3240273638, 0.21710434556007385, 0.5343084335327148, -0.47174885869026184, 0.6669583916664124, 0.9999993443489075, 0.00023144297301769257, -0.001082765869796276, 0.0002733692526817322, 0.07050621509552002, -0.0421375036239624, -0.0013412833213806152, 8.45950984954834, -5.0590715408325195, -0.16901570558547974, 3.182697296142578, -14.889698028564453, 3.7592482566833496, -1.071533203125, 0.1103515625, -0.3974609375, 0, 
638, 3240281971, 0.21622954308986664, 0.535076379776001, -0.47181156277656555, 0.6665826439857483, 0.9999992251396179, 0.0004380475729703903, -0.0011376561596989632, 0.0002885684370994568, 0.07184642553329468, -0.04222995042800903, -0.005636632442474365, 8.61966609954834, -5.0706000328063965, -0.6840593218803406, 6.023828983306885, -15.644526481628418, 3.9682610034942627, -1.069580078125, 0.111328125, -0.392578125, 0, 
639, 3240290304, 0.21534714102745056, 0.5357566475868225, -0.47186729311943054, 0.6662821173667908, 0.9999993443489075, 0.0004972238093614578, -0.0009721769019961357, 0.0002757608890533447, 0.07189607620239258, -0.041344523429870605, -0.008597791194915771, 8.62547492980957, -4.96446418762207, -1.0377570390701294, 6.837593078613281, -13.368929862976074, 3.7921369075775146, -1.067138671875, 0.10888671875, -0.39111328125, 0, 
640, 3240298637, 0.2145746797323227, 0.5363422632217407, -0.47183504700660706, 0.666083037853241, 0.999999463558197, 0.0004904624074697495, -0.0008528223261237144, 0.0002933479845523834, 0.0719672441482544, -0.04067111015319824, -0.009653449058532715, 8.634018898010254, -4.883798122406006, -1.1633796691894531, 6.744614124298096, -11.727622032165527, 4.033987045288086, -1.070068359375, 0.10986328125, -0.390625, 0, 
641, 3240306970, 0.21394120156764984, 0.536818265914917, -0.47189775109291077, 0.665858805179596, 0.9999997019767761, 0.00035207532346248627, -0.0006781471893191338, 0.00022171810269355774, 0.07267355918884277, -0.040842294692993164, -0.011390626430511475, 8.719184875488281, -4.903659343719482, -1.371070384979248, 4.841577053070068, -9.325567245483398, 3.0489649772644043, -1.070068359375, 0.111328125, -0.3876953125, 0, 
642, 3240315303, 0.21358487010002136, 0.5372018814086914, -0.47191402316093445, 0.6656523942947388, 0.9999998211860657, 0.00018806755542755127, -0.0005361130461096764, 0.00013593770563602448, 0.07184064388275146, -0.039951205253601074, -0.012069642543792725, 8.619850158691406, -4.795724868774414, -1.4519885778427124, 2.5862185955047607, -7.372379779815674, 1.8693528175354004, -1.074462890625, 0.111328125, -0.38623046875, 0, 
643, 3240323636, 0.21335271000862122, 0.5375388264656067, -0.4720759689807892, 0.6653398275375366, 0.9999998807907104, 5.867332220077515e-7, -0.0004622833803296089, 0.00005044415593147278, 0.07227379083633423, -0.03776305913925171, -0.010541737079620361, 8.672414779663086, -4.532170295715332, -1.2689241170883179, 0.00806848332285881, -6.357107162475586, 0.6936847567558289, -1.070068359375, 0.11328125, -0.38720703125, 0, 
644, 3240331969, 0.21336810290813446, 0.5377784371376038, -0.47226738929748535, 0.6650055646896362, 0.9999998807907104, -0.00021922308951616287, -0.0003708032891154289, 0.000023145228624343872, 0.07200485467910767, -0.03493779897689819, -0.0072786808013916016, 8.640522956848145, -4.192710876464844, -0.8774386048316956, -3.0146543979644775, -5.099115371704102, 0.31828245520591736, -1.072509765625, 0.11083984375, -0.38623046875, 0, 
645, 3240340302, 0.2134130895137787, 0.5379520058631897, -0.4726695716381073, 0.6645644903182983, 0.9999998807907104, -0.0004022279754281044, -0.0003400193527340889, 0.00004196353256702423, 0.07055419683456421, -0.032834649085998535, -0.0038458704948425293, 8.466531753540039, -3.9404780864715576, -0.46581172943115234, -5.531253814697266, -4.6757893562316895, 0.5770630836486816, -1.073486328125, 0.1123046875, -0.38525390625, 0, 
646, 3240348635, 0.2135472148656845, 0.5380727648735046, -0.47304147481918335, 0.6641588807106018, 0.9999998211860657, -0.00046214181929826736, -0.0003126068040728569, 0.00008195452392101288, 0.07087177038192749, -0.033431053161621094, -0.0011678338050842285, 8.504568099975586, -4.012537479400635, -0.14479771256446838, -6.355161190032959, -4.298824787139893, 1.1270008087158203, -1.069580078125, 0.109375, -0.3828125, 0, 
647, 3240356968, 0.21363095939159393, 0.5381508469581604, -0.47343945503234863, 0.6637851595878601, 0.9999998807907104, -0.0004084603860974312, -0.00022061634808778763, 0.0000730566680431366, 0.07013654708862305, -0.03508073091506958, -0.000958561897277832, 8.416406631469727, -4.210391521453857, -0.11841043829917908, -5.616958141326904, -3.033813953399658, 1.0046415328979492, -1.074951171875, 0.111328125, -0.38671875, 0, 
648, 3240365301, 0.21367456018924713, 0.5382410287857056, -0.4735647141933441, 0.663608729839325, 1, -0.00014783162623643875, -0.0001588156446814537, 0.0000726357102394104, 0.06927818059921265, -0.038178443908691406, -0.0005750060081481934, 8.313323020935059, -4.582272529602051, -0.07127784192562103, -2.032912254333496, -2.183959484100342, 0.9988526105880737, -1.070556640625, 0.109375, -0.3818359375, 0, 
649, 3240373634, 0.21351301670074463, 0.5383934378623962, -0.4735587239265442, 0.6635413765907288, 1, 0.00015210825949907303, -0.0001367088407278061, 0.00004814472049474716, 0.06831151247024536, -0.04195314645767212, -0.0021432042121887207, 8.197521209716797, -5.034871578216553, -0.25743433833122253, 2.0917224884033203, -1.879956841468811, 0.6620639562606812, -1.072509765625, 0.11181640625, -0.38671875, 0, 
650, 3240381967, 0.2132284790277481, 0.5386973023414612, -0.4733322858810425, 0.6635478138923645, 0.9999998807907104, 0.0003944709897041321, -0.0002824803814291954, 0.00003854930400848389, 0.06671077013015747, -0.042049288749694824, -0.0006975531578063965, 8.005393028259277, -5.046459674835205, -0.08398230373859406, 5.424582481384277, -3.8845391273498535, 0.5301121473312378, -1.070556640625, 0.11376953125, -0.38330078125, 0, 
651, 3240390300, 0.2127862274646759, 0.5391178131103516, -0.47327056527137756, 0.6633921265602112, 0.9999998211860657, 0.0003550145775079727, -0.0004851045086979866, 0.00005494058132171631, 0.06815880537033081, -0.04318934679031372, -0.0023693442344665527, 8.178969383239746, -5.183469295501709, -0.2864210605621338, 4.881996154785156, -6.670932769775391, 0.7555174827575684, -1.071533203125, 0.10986328125, -0.3828125, 0, 
652, 3240398633, 0.21248866617679596, 0.5395675897598267, -0.4732106626033783, 0.6631645560264587, 0.9999998211860657, 0.00021134130656719208, -0.0005469387397170067, 0.00001800060272216797, 0.06887537240982056, -0.04231548309326172, -0.0005503296852111816, 8.265243530273438, -5.078230381011963, -0.06962483376264572, 2.906268358230591, -7.521249771118164, 0.24753600358963013, -1.072998046875, 0.10986328125, -0.3837890625, 0, 
653, 3240406966, 0.21218208968639374, 0.5400944352149963, -0.4733143150806427, 0.6627597212791443, 0.9999997615814209, 0.00007604528218507767, -0.0006632320582866669, -0.00005441717803478241, 0.06890267133712769, -0.04051864147186279, 0.0016895532608032227, 8.269048690795898, -4.861968040466309, 0.19765819609165192, 1.045739769935608, -9.120461463928223, -0.7483199834823608, -1.071044921875, 0.109375, -0.378662109375, 0, 
654, 3240415299, 0.21208055317401886, 0.5406982898712158, -0.47334855794906616, 0.6622752547264099, 0.9999997019767761, -0.00004586763679981232, -0.0007149595767259598, -0.00018893368542194366, 0.06896692514419556, -0.0378689169883728, 0.0013409256935119629, 8.277312278747559, -4.542931079864502, 0.15493136644363403, -0.6307506561279297, -9.831794738769531, -2.5981290340423584, -1.074462890625, 0.10888671875, -0.380615234375, 0, 
655, 3240423632, 0.21190403401851654, 0.5413764119148254, -0.47329697012901306, 0.6618143916130066, 0.9999997019767761, 0.00011319480836391449, -0.0007022051140666008, -0.00031235162168741226, 0.07148951292037964, -0.037357866764068604, -0.0021242499351501465, 8.580288887023926, -4.48050594329834, -0.26036956906318665, 1.5566028356552124, -9.656400680541992, -4.295315742492676, -1.069091796875, 0.110107421875, -0.376220703125, 0, 
656, 3240431965, 0.21181215345859528, 0.5420761704444885, -0.472825825214386, 0.6616076231002808, 0.9999996423721313, 0.0004352070391178131, -0.0005162255838513374, -0.00045560020953416824, 0.07251399755477905, -0.037350356578826904, -0.004460513591766357, 8.703771591186523, -4.47853422164917, -0.5377951860427856, 5.984766960144043, -7.098896026611328, -6.265203952789307, -1.0732421875, 0.1083984375, -0.377197265625, 0, 
657, 3240440298, 0.2116500288248062, 0.5427359938621521, -0.47218066453933716, 0.661579430103302, 0.9999995827674866, 0.0006976686418056488, -0.0003256285563111305, -0.0005450090393424034, 0.07361316680908203, -0.04031634330749512, -0.008968651294708252, 8.836230278015137, -4.834071159362793, -1.0757811069488525, 9.59401798248291, -4.477893829345703, -7.49471378326416, -1.072265625, 0.107421875, -0.375732421875, 0, 
658, 3240448631, 0.21153074502944946, 0.5433304309844971, -0.47130441665649414, 0.6617546677589417, 0.999999463558197, 0.0008762078359723091, -0.00016651488840579987, -0.0005268007516860962, 0.07316744327545166, -0.04335290193557739, -0.009514808654785156, 8.782995223999023, -5.198930740356445, -1.138728141784668, 12.04920768737793, -2.2898361682891846, -7.244321346282959, -1.072265625, 0.10205078125, -0.377685546875, 0, 
659, 3240456964, 0.2113315314054489, 0.5437638163566589, -0.47057580947875977, 0.6619806885719299, 0.9999995827674866, 0.0008458048105239868, -0.00003737304359674454, -0.0004077451303601265, 0.07281392812728882, -0.046673476696014404, -0.011823594570159912, 8.740279197692871, -5.598647594451904, -1.4144229888916016, 11.631118774414062, -0.5139368772506714, -5.607123374938965, -1.0703125, 0.10302734375, -0.376220703125, 0, 
660, 3240465297, 0.21124275028705597, 0.5440449118614197, -0.46979132294654846, 0.6623351573944092, 0.9999995827674866, 0.0008170641958713531, 0.0001332256942987442, -0.0003119157627224922, 0.07187771797180176, -0.047898948192596436, -0.009396493434906006, 8.627593994140625, -5.746349334716797, -1.1218371391296387, 11.235889434814453, 1.8320581912994385, -4.289321422576904, -1.0703125, 0.103515625, -0.376708984375, 0, 
661, 3240473630, 0.2112317532300949, 0.5441831350326538, -0.469234436750412, 0.6626198887825012, 0.9999997615814209, 0.0005961637943983078, 0.00024385377764701843, -0.00029322970658540726, 0.07040601968765259, -0.04771524667739868, -0.0035819411277770996, 8.450862884521484, -5.723809719085693, -0.4243132770061493, 8.198169708251953, 3.3533644676208496, -4.0323591232299805, -1.072265625, 0.1015625, -0.373779296875, 0, 
662, 3240481963, 0.21156996488571167, 0.5442439913749695, -0.46866655349731445, 0.6628639101982117, 0.9999998211860657, 0.0003428943455219269, 0.0003738459199666977, -0.00039697717875242233, 0.06926590204238892, -0.04867851734161377, -0.0016321539878845215, 8.314644813537598, -5.838404655456543, -0.19072741270065308, 4.715324878692627, 5.140956401824951, -5.459046840667725, -1.07275390625, 0.10205078125, -0.375244140625, 0, 
663, 3240490296, 0.21196338534355164, 0.5443350672721863, -0.4680342376232147, 0.6631100177764893, 0.9999996423721313, 0.0003983834758400917, 0.0004593832418322563, -0.0005952436476945877, 0.06882220506668091, -0.04767709970474243, 0.001353621482849121, 8.262283325195312, -5.716559410095215, 0.16844050586223602, 5.478385925292969, 6.317226886749268, -8.185516357421875, -1.0703125, 0.09814453125, -0.375244140625, 0, 
664, 3240498629, 0.21249797940254211, 0.5445892810821533, -0.46707865595817566, 0.6634039282798767, 0.9999994039535522, 0.0005574366077780724, 0.0004468979313969612, -0.0008185282349586487, 0.06805211305618286, -0.04529857635498047, 0.002553224563598633, 8.170931816101074, -5.429121494293213, 0.31314435601234436, 7.665612697601318, 6.145535469055176, -11.256024360656738, -1.07275390625, 0.095703125, -0.377197265625, 0, 
665, 3240506962, 0.21284501254558563, 0.5450606942176819, -0.46600180864334106, 0.663662850856781, 0.9999991655349731, 0.000804961659014225, 0.0002834303304553032, -0.0009886715561151505, 0.06689572334289551, -0.04242056608200073, 0.0028766989707946777, 8.032718658447266, -5.0824875831604, 0.35156282782554626, 11.069464683532715, 3.897604465484619, -13.595758438110352, -1.0693359375, 0.09375, -0.379638671875, 0, 
666, 3240515295, 0.21301542222499847, 0.5458964705467224, -0.4645985960960388, 0.6639050245285034, 0.9999987483024597, 0.00115247443318367, -0.00004186015576124191, -0.0011034021154046059, 0.06602323055267334, -0.037885427474975586, 0.003615140914916992, 7.928108215332031, -4.537238121032715, 0.4387112855911255, 15.848302841186523, -0.5756418108940125, -15.173483848571777, -1.0693359375, 0.09423828125, -0.378173828125, 0, 
667, 3240523628, 0.2127857208251953, 0.5470689535140991, -0.4631333351135254, 0.66403728723526, 0.999998152256012, 0.0014633964747190475, -0.0004398813471198082, -0.001175963319838047, 0.06810706853866577, -0.03466564416885376, 0.0030016303062438965, 8.178231239318848, -4.149881362915039, 0.36270132660865784, 20.123966217041016, -6.049048900604248, -16.171316146850586, -1.0703125, 0.08837890625, -0.375244140625, 0, 
668, 3240531961, 0.21235314011573792, 0.5484985113143921, -0.4614221751689911, 0.6641877889633179, 0.9999974966049194, 0.0017702709883451462, -0.0007003312930464745, -0.0011666519567370415, 0.06892144680023193, -0.03392666578292847, 0.0036602020263671875, 8.275949478149414, -4.06095027923584, 0.44064727425575256, 24.343969345092773, -9.630640029907227, -16.043272018432617, -1.0712890625, 0.0869140625, -0.377685546875, 0, 
669, 3240540294, 0.21155448257923126, 0.5500169992446899, -0.45971572399139404, 0.6643701791763306, 0.9999969601631165, 0.0020334385335445404, -0.0008593378588557243, -0.0010820059105753899, 0.0703626275062561, -0.035468995571136475, 0.002609550952911377, 8.448728561401367, -4.246664047241211, 0.31455138325691223, 27.962934494018555, -11.817229270935059, -14.879258155822754, -1.06787109375, 0.0849609375, -0.375732421875, 0, 
670, 3240548627, 0.21056951582431793, 0.5515597462654114, -0.4577987492084503, 0.6647277474403381, 0.9999964833259583, 0.002329571172595024, -0.0008726371452212334, -0.0009215334430336952, 0.07238060235977173, -0.03807145357131958, 0.002160966396331787, 8.690451622009277, -4.560149669647217, 0.26238006353378296, 32.035221099853516, -12.000116348266602, -12.672514915466309, -1.0673828125, 0.08056640625, -0.372802734375, 0, 
671, 3240556960, 0.20948542654514313, 0.5529232621192932, -0.45597800612449646, 0.6651884913444519, 0.9999966025352478, 0.0023706424981355667, -0.0007181921973824501, -0.0008272351697087288, 0.0754041075706482, -0.04139500856399536, 0.0009291768074035645, 9.053046226501465, -4.9598388671875, 0.11677951365709305, 32.60000991821289, -9.876255989074707, -11.37576675415039, -1.072265625, 0.07861328125, -0.369873046875, 0, 
672, 3240565293, 0.2086208611726761, 0.5541254281997681, -0.45401862263679504, 0.6657997965812683, 0.9999968409538269, 0.0023355279117822647, -0.00044239405542612076, -0.0008165454491972923, 0.07679325342178345, -0.04294008016586304, 0.0006510615348815918, 9.219799995422363, -5.145299434661865, 0.08608296513557434, 32.117130279541016, -6.083604335784912, -11.228766441345215, -1.07080078125, 0.076171875, -0.370361328125, 0, 
673, 3240573626, 0.20781955122947693, 0.5550864338874817, -0.45212891697883606, 0.6665354371070862, 0.999997079372406, 0.0022773277014493942, -0.00015115272253751755, -0.0008147498592734337, 0.07376068830490112, -0.04386246204376221, 0.001713871955871582, 8.855952262878418, -5.256019115447998, 0.21631300449371338, 31.316789627075195, -2.0785844326019287, -11.204073905944824, -1.07080078125, 0.07373046875, -0.372802734375, 0, 
674, 3240581959, 0.20721545815467834, 0.5559025406837463, -0.4501296877861023, 0.6673961281776428, 0.9999971389770508, 0.00225010234862566, 0.00007898639887571335, -0.0007856115698814392, 0.07081031799316406, -0.044631779193878174, 0.0022085905075073242, 8.5017671585083, -5.348737716674805, 0.2777722477912903, 30.94239616394043, 1.086185336112976, -10.803376197814941, -1.071533203125, 0.07177734375, -0.368408203125, 0, 
675, 3240590292, 0.20643289387226105, 0.5566396713256836, -0.44807273149490356, 0.6684076189994812, 0.9999967217445374, 0.0024405084550380707, 0.00019597262144088745, -0.000765572302043438, 0.06692010164260864, -0.04434400796890259, 0.004912853240966797, 8.034692764282227, -5.313887119293213, 0.604133665561676, 33.56077575683594, 2.694927453994751, -10.527806282043457, -1.069091796875, 0.06689453125, -0.370361328125, 0, 
676, 3240598625, 0.2054547816514969, 0.5575094223022461, -0.4456896483898163, 0.6695764064788818, 0.9999956488609314, 0.002864215523004532, 0.00012587197124958038, -0.00070978794246912, 0.06482499837875366, -0.04470634460449219, 0.005351245403289795, 7.783039093017578, -5.35759162902832, 0.6585302948951721, 39.38742446899414, 1.7309354543685913, -9.760689735412598, -1.069091796875, 0.06787109375, -0.371826171875, 0, 
677, 3240606958, 0.20399555563926697, 0.5584827065467834, -0.4430962800979614, 0.6709311604499817, 0.9999939799308777, 0.0034053344279527664, 0.000022798776626586914, -0.000653446651995182, 0.06413495540618896, -0.045228540897369385, 0.005771815776824951, 7.7000274658203125, -5.42024040222168, 0.7112748622894287, 46.82867431640625, 0.31351882219314575, -8.98591423034668, -1.067138671875, 0.0654296875, -0.369384765625, 0, 
678, 3240615291, 0.2022520750761032, 0.5596540570259094, -0.4401465356349945, 0.6724228262901306, 0.999992311000824, 0.0038762670010328293, -0.00012064073234796524, -0.0005812374874949455, 0.06479257345199585, -0.046503424644470215, 0.005960941314697266, 7.778748989105225, -5.573315143585205, 0.7360263466835022, 53.30477523803711, -1.659000039100647, -7.992930889129639, -1.071044921875, 0.06005859375, -0.372314453125, 0, 
679, 3240623624, 0.20007044076919556, 0.5609079599380493, -0.43714532256126404, 0.6739868521690369, 0.9999908804893494, 0.004233110696077347, -0.00029199477285146713, -0.000484648160636425, 0.06673765182495117, -0.04646021127700806, 0.008188188076019287, 8.011828422546387, -5.567376613616943, 1.0038726329803467, 58.21195602416992, -4.015389442443848, -6.664677143096924, -1.069580078125, 0.05859375, -0.366943359375, 0, 
680, 3240631957, 0.19766291975975037, 0.562249481678009, -0.43400582671165466, 0.6756065487861633, 0.9999898672103882, 0.004466257989406586, -0.0004169708117842674, -0.00028979498893022537, 0.06808739900588989, -0.0468977689743042, 0.008547842502593994, 8.172876358032227, -5.620975494384766, 1.0475013256072998, 61.418121337890625, -5.734008312225342, -3.9851396083831787, -1.069580078125, 0.0546875, -0.369384765625, 0, 
681, 3240640290, 0.19475705921649933, 0.5635277628898621, -0.4309786558151245, 0.6773208975791931, 0.9999886751174927, 0.004726734012365341, -0.0005415333434939384, 0.0000016130506992340088, 0.06931394338607788, -0.04536980390548706, 0.009685993194580078, 8.31863021850586, -5.4390764236450195, 1.1836012601852417, 65.00010681152344, -7.4469451904296875, 0.022182011976838112, -1.070068359375, 0.05615234375, -0.367431640625, 0, 
682, 3240648623, 0.1916000097990036, 0.5648165345191956, -0.4278702735900879, 0.6791163682937622, 0.9999876022338867, 0.00493285059928894, -0.0006133159622550011, 0.000291457399725914, 0.07008284330368042, -0.042560458183288574, 0.011603772640228271, 8.409646034240723, -5.10300874710083, 1.412538766860962, 67.83456420898438, -8.434073448181152, 4.008004665374756, -1.069091796875, 0.05029296875, -0.364990234375, 0, 
683, 3240656956, 0.18823863565921783, 0.565929651260376, -0.42500677704811096, 0.6809253096580505, 0.9999874830245972, 0.004944270476698875, -0.0006335629150271416, 0.0004839114844799042, 0.0718696117401123, -0.041238605976104736, 0.00910872220993042, 8.62299919128418, -4.947567939758301, 1.1121020317077637, 67.99160766601562, -8.71250057220459, 6.654555320739746, -1.069091796875, 0.048828125, -0.360595703125, 0, 
684, 3240665289, 0.1849624365568161, 0.5670106410980225, -0.4219817519187927, 0.6828026175498962, 0.9999875426292419, 0.004938963800668716, -0.0004937304183840752, 0.0005230698734521866, 0.07139384746551514, -0.04085057973861694, 0.00890117883682251, 8.565570831298828, -4.901437759399414, 1.0881686210632324, 67.91864013671875, -6.789581775665283, 7.193045616149902, -1.067626953125, 0.04833984375, -0.362060546875, 0, 
685, 3240673622, 0.18158495426177979, 0.5679867267608643, -0.4189053773880005, 0.6847893595695496, 0.999987006187439, 0.0050676483660936356, -0.0003880569711327553, 0.00046430714428424835, 0.06648987531661987, -0.04062974452972412, 0.010358572006225586, 7.977325439453125, -4.87313175201416, 1.2646864652633667, 69.68824768066406, -5.336402416229248, 6.3849639892578125, -1.0712890625, 0.048828125, -0.359619140625, 0, 
686, 3240681955, 0.1782107949256897, 0.569178581237793, -0.41539672017097473, 0.6868205666542053, 0.9999852180480957, 0.00541025772690773, -0.0004358449950814247, 0.0002973433583974838, 0.06203806400299072, -0.042494237422943115, 0.01165705919265747, 7.443962574005127, -5.094110488891602, 1.423250436782837, 74.39973449707031, -5.993569374084473, 4.088948726654053, -1.068603515625, 0.04931640625, -0.360107421875, 0, 
687, 3240690288, 0.1747138649225235, 0.570565938949585, -0.41170138120651245, 0.6887899041175842, 0.9999827146530151, 0.005836576223373413, -0.0006978688761591911, 0.000012645497918128967, 0.055513203144073486, -0.04407942295074463, 0.012927234172821045, 6.662872314453125, -5.280724048614502, 1.5775282382965088, 80.2623519897461, -9.596824645996094, 0.17389602959156036, -1.07275390625, 0.046875, -0.355224609375, 0, 
688, 3240698621, 0.17092064023017883, 0.572583019733429, -0.407591313123703, 0.6905100345611572, 0.9999807476997375, 0.006079657003283501, -0.0012485673651099205, -0.00015247520059347153, 0.04956907033920288, -0.045245587825775146, 0.01723802089691162, 5.951945781707764, -5.4161553382873535, 2.094193696975708, 83.60517120361328, -17.169832229614258, -2.0967819690704346, -1.07080078125, 0.04248046875, -0.354736328125, 0, 
689, 3240706954, 0.16638687252998352, 0.5750413537025452, -0.403478741645813, 0.6919882297515869, 0.9999766945838928, 0.006525071337819099, -0.0020198440179228783, -0.00003628525882959366, 0.052204906940460205, -0.04374128580093384, 0.016461074352264404, 6.269035339355469, -5.235995769500732, 1.9969792366027832, 89.73045349121094, -27.77617645263672, -0.49898192286491394, -1.0732421875, 0.0400390625, -0.351806640625, 0, 
690, 3240715287, 0.16135399043560028, 0.5778814554214478, -0.39916712045669556, 0.6933133602142334, 0.999972939491272, 0.0069089364260435104, -0.002513752318918705, 0.00018732622265815735, 0.06056368350982666, -0.042520105838775635, 0.0068735480308532715, 7.269065856933594, -5.098239421844482, 0.8418329954147339, 95.00935363769531, -34.56827163696289, 2.5760467052459717, -1.07421875, 0.0380859375, -0.347412109375, 0, 
691, 3240723620, 0.1557186394929886, 0.5806096196174622, -0.394674688577652, 0.6948930025100708, 0.9999685883522034, 0.007499272003769875, -0.0025383299216628075, 0.00040717050433158875, 0.0666877031326294, -0.04123431444168091, -0.000462949275970459, 8.000700950622559, -4.951948165893555, -0.03874865919351578, 103.12759399414062, -34.90630340576172, 5.599278450012207, -1.069091796875, 0.0361328125, -0.342041015625, 0, 
692, 3240731953, 0.15006104111671448, 0.5831935405731201, -0.3898196816444397, 0.6967121362686157, 0.9999669790267944, 0.0078030116856098175, -0.002213357947766781, 0.00048511289060115814, 0.0754360556602478, -0.040034592151641846, -0.005498230457305908, 9.048909187316895, -4.813835620880127, -0.6423370242118835, 107.30459594726562, -30.437410354614258, 6.671121597290039, -1.075439453125, 0.03125, -0.333984375, 0, 
693, 3240740286, 0.14423716068267822, 0.585540771484375, -0.38456982374191284, 0.6988875865936279, 0.999970018863678, 0.007562810555100441, -0.0016395645216107368, 0.00034380145370960236, 0.07708549499511719, -0.03786128759384155, -0.007979393005371094, 9.24750804901123, -4.553908824920654, -0.9383457899093628, 104.00131225585938, -22.5467586517334, 4.727845668792725, -1.073486328125, 0.03369140625, -0.32861328125, 0, 
694, 3240748619, 0.13971079885959625, 0.5873510837554932, -0.3798012137413025, 0.7008928656578064, 0.9999745488166809, 0.0070396121591329575, -0.0011412454769015312, 0.00007310137152671814, 0.07400017976760864, -0.035203635692596436, -0.007426917552947998, 8.879057884216309, -4.231483459472656, -0.8716405630111694, 96.80630493164062, -15.694014549255371, 1.0052646398544312, -1.074951171875, 0.029296875, -0.3271484375, 0, 
695, 3240756952, 0.1352047175168991, 0.5891356468200684, -0.37481221556663513, 0.7029615044593811, 0.9999784231185913, 0.006512556225061417, -0.000851101242005825, -0.0002291044220328331, 0.07130259275436401, -0.03653186559677124, -0.007416963577270508, 8.556905746459961, -4.387788772583008, -0.8687976002693176, 89.55831146240234, -11.704035758972168, -3.1505608558654785, -1.07421875, 0.029296875, -0.32373046875, 0, 
696, 3240765285, 0.13159699738025665, 0.5907729268074036, -0.37026992440223694, 0.7046772241592407, 0.9999802708625793, 0.006206102669239044, -0.0008755186572670937, -0.0004130890592932701, 0.06657451391220093, -0.03676062822341919, -0.0008834600448608398, 7.990996837615967, -4.408766269683838, -0.08563932776451111, 85.34400177001953, -12.03980541229248, -5.6806464195251465, -1.07177734375, 0.0224609375, -0.32080078125, 0, 
697, 3240773618, 0.12774239480495453, 0.5924807786941528, -0.36587655544281006, 0.7062457799911499, 0.9999799728393555, 0.006210055202245712, -0.0011621294543147087, -0.00037939008325338364, 0.06457626819610596, -0.03961127996444702, 0.0077384114265441895, 7.7523512840271, -4.744795322418213, 0.9491387605667114, 85.39836883544922, -15.981172561645508, -5.217231273651123, -1.07421875, 0.02392578125, -0.32080078125, 0, 
698, 3240781951, 0.12376073747873306, 0.5943822264671326, -0.36142367124557495, 0.7076484560966492, 0.9999792575836182, 0.006282243877649307, -0.0013970928266644478, -0.00023466814309358597, 0.06398367881774902, -0.04008990526199341, 0.016030848026275635, 7.682173728942871, -4.797048091888428, 1.9432495832443237, 86.39110565185547, -19.21230697631836, -3.2270703315734863, -1.07568359375, 0.02197265625, -0.314453125, 0, 
699, 3240790284, 0.11937504261732101, 0.5962474346160889, -0.35699325799942017, 0.7090800404548645, 0.9999775290489197, 0.006521251052618027, -0.0015473952516913414, -0.0001027202233672142, 0.061645328998565674, -0.03924453258514404, 0.020418643951416016, 7.4020209312438965, -4.692747592926025, 2.4695658683776855, 89.67789459228516, -21.27922248840332, -1.4125715494155884, -1.07666015625, 0.01806640625, -0.3134765625, 0, 
700, 3240798617, 0.114701047539711, 0.5984964966773987, -0.3521393835544586, 0.7103828191757202, 0.9999737739562988, 0.006984518840909004, -0.0019044382497668266, -0.00011938344687223434, 0.055527448654174805, -0.037884652614593506, 0.01953953504562378, 6.668580055236816, -4.529122829437256, 2.3638572692871094, 96.04871368408203, -26.189184188842773, -1.6417202949523926, -1.0771484375, 0.01611328125, -0.30908203125, 0, 
701, 3240806950, 0.10957499593496323, 0.6010702848434448, -0.3470631539821625, 0.711516261100769, 0.9999696612358093, 0.00739554688334465, -0.0024265917018055916, -0.000250902958214283, 0.05748409032821655, -0.033511579036712646, 0.016862213611602783, 6.904294967651367, -4.004820823669434, 2.0365030765533447, 101.70116424560547, -33.36970138549805, -3.450336217880249, -1.074951171875, 0.01416015625, -0.3046875, 0, 
702, 3240815283, 0.10470281541347504, 0.6040852665901184, -0.3416120409965515, 0.7123342752456665, 0.9999682903289795, 0.007443567737936974, -0.0027445005252957344, -0.0006590904667973518, 0.06021374464035034, -0.030201852321624756, 0.006752669811248779, 7.230554103851318, -3.613556146621704, 0.8174670338630676, 102.361572265625, -37.74149703979492, -9.063602447509766, -1.078857421875, 0.0087890625, -0.29638671875, 0, 
703, 3240823616, 0.1000036895275116, 0.6073222160339355, -0.3361237645149231, 0.7128675580024719, 0.9999680519104004, 0.007292585447430611, -0.003079974092543125, -0.0010965531691908836, 0.06007349491119385, -0.028324425220489502, -0.004042923450469971, 7.211341381072998, -3.3946938514709473, -0.4825991094112396, 100.28532409667969, -42.354827880859375, -15.079450607299805, -1.07958984375, 0.0068359375, -0.28759765625, 0, 
704, 3240831949, 0.09563781321048737, 0.6109969615936279, -0.3304206430912018, 0.7129927277565002, 0.9999674558639526, 0.0071489401161670685, -0.0034382501617074013, -0.0014668377116322517, 0.06507253646850586, -0.02728712558746338, -0.012362837791442871, 7.808713436126709, -3.2737460136413574, -1.4870412349700928, 98.30998992919922, -47.28173828125, -20.171491622924805, -1.078125, 0.001953125, -0.2822265625, 0, 
705, 3240840282, 0.09147142618894577, 0.6146867275238037, -0.32467928528785706, 0.7130054235458374, 0.9999675154685974, 0.007018124684691429, -0.0035202903673052788, -0.001831977628171444, 0.07035320997238159, -0.02696293592453003, -0.015257537364959717, 8.442193984985352, -3.233081102371216, -1.837995171546936, 96.51104736328125, -48.40993118286133, -25.192781448364258, -1.08056640625, -0.0029296875, -0.274658203125, 0, 
706, 3240848615, 0.0875687301158905, 0.6185483336448669, -0.31872785091400146, 0.7128410935401917, 0.9999672770500183, 0.00696457177400589, -0.0035746311768889427, -0.002037609927356243, 0.0771440863609314, -0.03261810541152954, -0.020595252513885498, 9.256793022155762, -3.9126923084259033, -2.4773638248443604, 95.77459716796875, -49.157203674316406, -28.020572662353516, -1.079345703125, -0.0068359375, -0.263916015625, 0, 
707, 3240856948, 0.08388706296682358, 0.6218958497047424, -0.31313055753707886, 0.712851881980896, 0.9999714493751526, 0.006587084382772446, -0.0031295819208025932, -0.001977686770260334, 0.0843430757522583, -0.036147117614746094, -0.017573177814483643, 10.123546600341797, -4.331707000732422, -2.1119842529296875, 90.58341217041016, -43.03697967529297, -27.196495056152344, -1.076904296875, -0.009521484375, -0.259033203125, 0, 
708, 3240865281, 0.08086502552032471, 0.6246782541275024, -0.30797266960144043, 0.7130153179168701, 0.9999783039093018, 0.005863083526492119, -0.0023931218311190605, -0.0018044458702206612, 0.08538347482681274, -0.03441983461380005, -0.009858548641204834, 10.2510404586792, -4.11898946762085, -1.1834028959274292, 80.62699890136719, -32.909339904785156, -24.814085006713867, -1.07861328125, -0.015869140625, -0.249267578125, 0, 
709, 3240873614, 0.07819785922765732, 0.6268297433853149, -0.3035236597061157, 0.7133324146270752, 0.9999838471412659, 0.005136230960488319, -0.0018584644421935081, -0.0015874626114964485, 0.07890790700912476, -0.030870497226715088, -0.0015645623207092285, 9.474854469299316, -3.6905295848846436, -0.18635304272174835, 70.63146209716797, -25.556884765625, -21.830171585083008, -1.07666015625, -0.022216796875, -0.245849609375, 0, 
710, 3240881947, 0.07602769881486893, 0.6288390159606934, -0.29950982332229614, 0.713495135307312, 0.9999876022338867, 0.00445237010717392, -0.0016738148406147957, -0.0014588916674256325, 0.07498723268508911, -0.027029216289520264, 0.00020509958267211914, 9.003594398498535, -3.2303898334503174, 0.023969722911715508, 61.2271842956543, -23.017621994018555, -20.06208610534668, -1.078125, -0.022705078125, -0.239013671875, 0, 
711, 3240890280, 0.07405985891819, 0.6306720972061157, -0.2958565652370453, 0.7136083841323853, 0.99998939037323, 0.0040444787591695786, -0.0016080187633633614, -0.0015050685033202171, 0.06928074359893799, -0.0212249755859375, 0.0012714862823486328, 8.318095207214355, -2.5339646339416504, 0.14949575066566467, 55.61800003051758, -22.11280632019043, -20.697078704833984, -1.081298828125, -0.029052734375, -0.237060546875, 0, 
