PacketCounter,SampleTimeFine,Quat_W,Quat_X,Quat_Y,Quat_Z,dq_W,dq_X,dq_Y,dq_Z,dv[1],dv[2],dv[3],Acc_X,Acc_Y,Acc_Z,Gyr_X,Gyr_Y,Gyr_Z,Mag_X,Mag_Y,Mag_Z,Status,
0, 4270514380, 0.09577949345111847, 0.7423950433731079, -0.07552468776702881, 0.6587633490562439, 0, 0, 0, 0, 0, 0, 0, 0, 0, 0, 0, 0, 0, -0.958984375, -0.40380859375, 0.03955078125, 0, 
1, 4270522713, 0.09577375650405884, 0.7423814535140991, -0.07555645704269409, 0.6587759256362915, 1, -0.00001704692840576172, 0.000014896504580974579, 0.000029561109840869904, 0.08094823360443115, 0.0034780502319335938, -0.009249269962310791, 9.714176177978516, 0.41738268733024597, -1.1099567413330078, -0.2344214916229248, 0.20484986901283264, 0.40651074051856995, -0.955322265625, -0.402587890625, 0.037353515625, 0, 
2, 4270531046, 0.09577823430299759, 0.7423645257949829, -0.07557271420955658, 0.6587924957275391, 1, -0.0000144224613904953, 0.000022168271243572235, 0.00001192186027765274, 0.08065879344940186, 0.0035346150398254395, -0.00923144817352295, 9.67944049835205, 0.4241703748703003, -1.1078180074691772, -0.19833101332187653, 0.3048478066921234, 0.16394390165805817, -0.95751953125, -0.402587890625, 0.0380859375, 0, 
3, 4270539379, 0.09579184651374817, 0.7422714829444885, -0.07556317746639252, 0.6588985323905945, 1, -0.000010848045349121094, 0.000013467855751514435, 0.000010489486157894135, 0.08075088262557983, 0.0036244988441467285, -0.009288787841796875, 9.690491676330566, 0.4349569082260132, -1.114699125289917, -0.14917729794979095, 0.18520373106002808, 0.14424654841423035, -0.9580078125, -0.401123046875, 0.0390625, 0, 
4, 4270547712, 0.09578022360801697, 0.7422637343406677, -0.07556964457035065, 0.6589081883430481, 1, 0.0000042887404561042786, 0.000010724179446697235, 0.00001394469290971756, 0.08050709962844849, 0.0037908554077148438, -0.00916445255279541, 9.661236763000488, 0.4549208879470825, -1.099778175354004, 0.05897677689790726, 0.14747393131256104, 0.19176097214221954, -0.95556640625, -0.402099609375, 0.038330078125, 0, 
5, 4270556045, 0.09575016796588898, 0.7422788143157959, -0.07536552101373672, 0.6589189171791077, 1, 0.00001764204353094101, 0.000013700686395168304, 0.00001871492713689804, 0.08058375120162964, 0.003757953643798828, -0.009239017963409424, 9.670434951782227, 0.4509725868701935, -1.1087260246276855, 0.24260522425174713, 0.18840549886226654, 0.25735902786254883, -0.958984375, -0.402587890625, 0.04150390625, 0, 
6, 4270564378, 0.0957188680768013, 0.7422728538513184, -0.07536283135414124, 0.6589304208755493, 1, 0.00002527143806219101, 0.00001048017293214798, 0.000020145438611507416, 0.08070617914199829, 0.0038003921508789062, -0.00932854413986206, 9.685128211975098, 0.45606541633605957, -1.1194697618484497, 0.3475211262702942, 0.14411848783493042, 0.27703073620796204, -0.956298828125, -0.401123046875, 0.037353515625, 0, 
7, 4270572711, 0.09563379734754562, 0.7423157691955566, -0.07484658807516098, 0.6589534282684326, 1, 0.00003111455589532852, 0.000020372681319713593, 0.00002038571983575821, 0.08070653676986694, 0.003689885139465332, -0.009510219097137451, 9.685171127319336, 0.44280388951301575, -1.1412718296051025, 0.4278729557991028, 0.2801556885242462, 0.2803349792957306, -0.957763671875, -0.402587890625, 0.035888671875, 0, 
8, 4270581044, 0.09560152143239975, 0.7423007488250732, -0.07484006136655807, 0.6589757800102234, 1, 0.000028493814170360565, 0.00002466607838869095, 0.000019670464098453522, 0.08061546087265015, 0.003686070442199707, -0.009507060050964355, 9.67424201965332, 0.44234639406204224, -1.1408923864364624, 0.39183375239372253, 0.33919647336006165, 0.2704991102218628, -0.95703125, -0.404541015625, 0.03759765625, 0, 
9, 4270589377, 0.09588608890771866, 0.7423675656318665, -0.07480927556753159, 0.6588627099990845, 1, 0.00001657102257013321, 0.00002574268728494644, 0.00001287367194890976, 0.08053988218307495, 0.003896057605743408, -0.009381234645843506, 9.665172576904297, 0.46754515171051025, -1.12579345703125, 0.22787705063819885, 0.354001522064209, 0.17703278362751007, -0.95556640625, -0.402587890625, 0.03955078125, 0, 
10, 4270597710, 0.09587310999631882, 0.7423462867736816, -0.07481648027896881, 0.6588878631591797, 1, 0.000004650093615055084, 0.00003098975867033005, 0.000017999671399593353, 0.08073878288269043, 0.0037561655044555664, -0.00948399305343628, 9.689041137695312, 0.45075783133506775, -1.1381245851516724, 0.0639459416270256, 0.42615681886672974, 0.24752314388751984, -0.9580078125, -0.401611328125, 0.0390625, 0, 
11, 4270606043, 0.09589633345603943, 0.7424522042274475, -0.07455272972583771, 0.6587948203086853, 1, 0.00001156982034444809, 0.00003528129309415817, 0.000009535811841487885, 0.08066314458847046, 0.003722667694091797, -0.009326517581939697, 9.679965019226074, 0.44673776626586914, -1.1192270517349243, 0.15910279750823975, 0.4851720333099365, 0.13113205134868622, -0.958251953125, -0.401611328125, 0.03759765625, 0, 
12, 4270614376, 0.09589370340108871, 0.7424274682998657, -0.07455439120531082, 0.6588229537010193, 1, 6.025657057762146e-7, 0.00003695208579301834, 0.000007507391273975372, 0.08089274168014526, 0.003858208656311035, -0.009091854095458984, 9.70751667022705, 0.4630035161972046, -1.0910660028457642, 0.008286205120384693, 0.5081480145454407, 0.10323818027973175, -0.958251953125, -0.40283203125, 0.036376953125, 0, 
13, 4270622709, 0.0960746631026268, 0.7424855828285217, -0.07453493028879166, 0.6587332487106323, 1, 2.4866312742233276e-7, 0.000045058317482471466, -1.2293457984924316e-7, 0.08092391490936279, 0.0036890506744384766, -0.009284257888793945, 9.711257934570312, 0.4427037537097931, -1.1141554117202759, 0.003419500309973955, 0.6196210980415344, -0.0016905395314097404, -0.95751953125, -0.402099609375, 0.0390625, 0, 
14, 4270631042, 0.0960727408528328, 0.7424464821815491, -0.0745263397693634, 0.6587785482406616, 1, 0.000006691552698612213, 0.00006007682532072067, 0.000002144835889339447, 0.0807265043258667, 0.0035670995712280273, -0.009521186351776123, 9.687565803527832, 0.4280691146850586, -1.1425877809524536, 0.09201914072036743, 0.8261486887931824, 0.029494792222976685, -0.953369140625, -0.403564453125, 0.037353515625, 0, 
15, 4270639375, 0.09611038863658905, 0.7424537539482117, -0.07439634948968887, 0.6587795615196228, 1, 0.000036492012441158295, 0.00006352458149194717, 0.000004776753485202789, 0.08042269945144653, 0.003673732280731201, -0.009664297103881836, 9.65110969543457, 0.44086581468582153, -1.159761905670166, 0.5018212795257568, 0.8735606670379639, 0.06568770110607147, -0.959228515625, -0.40087890625, 0.03759765625, 0, 
16, 4270647708, 0.09607075899839401, 0.7424041032791138, -0.07436253875494003, 0.6588451266288757, 1, 0.000051754526793956757, 0.00008163880556821823, 0.000010979361832141876, 0.08025616407394409, 0.003580749034881592, -0.009807109832763672, 9.631124496459961, 0.42970705032348633, -1.1769001483917236, 0.7117042541503906, 1.1226589679718018, 0.15098309516906738, -0.954345703125, -0.402587890625, 0.037841796875, 0, 
17, 4270656041, 0.09615617245435715, 0.7424163222312927, -0.0743788480758667, 0.6588168740272522, 1, 0.000036374665796756744, 0.00007377844303846359, 0.000012882985174655914, 0.0801817774772644, 0.0037764310836791992, -0.009794414043426514, 9.622199058532715, 0.453189492225647, -1.1753768920898438, 0.5002076029777527, 1.0145671367645264, 0.1771608591079712, -0.955322265625, -0.402587890625, 0.036376953125, 0, 
18, 4270664374, 0.09613759815692902, 0.7423742413520813, -0.07437535375356674, 0.6588672995567322, 1, 0.000015863217413425446, 0.00006412994116544724, 0.00001764018088579178, 0.08028990030288696, 0.003926217555999756, -0.009477674961090088, 9.635172843933105, 0.47116491198539734, -1.1373664140701294, 0.21814362704753876, 0.881885290145874, 0.2425796091556549, -0.95654296875, -0.401611328125, 0.03955078125, 0, 
19, 4270672707, 0.09622318297624588, 0.7424333691596985, -0.07444082945585251, 0.6587809920310974, 1, 0.0000025024637579917908, 0.0000445852056145668, 0.000020734034478664398, 0.0805656909942627, 0.004212856292724609, -0.009223103523254395, 9.668268203735352, 0.505562961101532, -1.1068166494369507, 0.034412723034620285, 0.6131150722503662, 0.28512483835220337, -0.9560546875, -0.405029296875, 0.036865234375, 0, 
20, 4270681040, 0.09621881693601608, 0.7424249053001404, -0.07445195317268372, 0.658789873123169, 1, -0.000004297122359275818, 0.000010729767382144928, 0.000012627802789211273, 0.0806434154510498, 0.004194080829620361, -0.009490489959716797, 9.677596092224121, 0.5033097863197327, -1.1389042139053345, -0.05909203737974167, 0.1475507915019989, 0.17365171015262604, -0.953369140625, -0.403076171875, 0.037841796875, 0, 
21, 4270689373, 0.09628956764936447, 0.7425065040588379, -0.0744582936167717, 0.6586869955062866, 1, -0.00000764988362789154, -0.000012751668691635132, 0.000020378269255161285, 0.08079570531845093, 0.0039632320404052734, -0.009198486804962158, 9.695871353149414, 0.4756068289279938, -1.1038625240325928, -0.10519767552614212, -0.17535504698753357, 0.2802325189113617, -0.95849609375, -0.404052734375, 0.0390625, 0, 
22, 4270697706, 0.09626507014036179, 0.7425093054771423, -0.07447027415037155, 0.6586860418319702, 1, 0.000010468997061252594, -0.000005487352609634399, 0.000024800188839435577, 0.08099418878555298, 0.003730952739715576, -0.00945955514907837, 9.71968936920166, 0.4477321207523346, -1.1351916790008545, 0.14396481215953827, -0.07545953243970871, 0.341040700674057, -0.957763671875, -0.401611328125, 0.035888671875, 0, 
23, 4270706039, 0.09624526649713516, 0.7425786256790161, -0.07436280697584152, 0.6586229801177979, 1, 0.000055056996643543243, -2.2351741790771484e-8, 0.00002161134034395218, 0.08111661672592163, 0.0037112832069396973, -0.0096893310546875, 9.734382629394531, 0.4453717768192291, -1.1627660989761353, 0.757118284702301, -0.0003073708212468773, 0.2971891164779663, -0.952392578125, -0.403564453125, 0.034912109375, 0, 
24, 4270714372, 0.0961790382862091, 0.7425535321235657, -0.07434200495481491, 0.658663272857666, 1, 0.0000635320320725441, 0.00004360731691122055, 0.000033886171877384186, 0.08099615573883057, 0.003981113433837891, -0.010559678077697754, 9.719926834106445, 0.477752685546875, -1.2672119140625, 0.8736631274223328, 0.5996676087379456, 0.4659869372844696, -0.95947265625, -0.4033203125, 0.03759765625, 0, 
25, 4270722705, 0.09628565609455109, 0.7425476908683777, -0.07444404065608978, 0.6586426496505737, 1, 0.00005614478141069412, 0.00007735099643468857, 0.00005246791988611221, 0.08064645528793335, 0.0042035579681396484, -0.01047748327255249, 9.677961349487305, 0.5044471025466919, -1.2573481798171997, 0.7720770835876465, 1.0636951923370361, 0.7215145826339722, -0.955322265625, -0.404052734375, 0.035888671875, 0, 
26, 4270731038, 0.09623132646083832, 0.7424853444099426, -0.07445160299539566, 0.6587200164794922, 1, 0.000035054050385951996, 0.00009369384497404099, 0.00005351845175027847, 0.08060330152511597, 0.00454479455947876, -0.010603129863739014, 9.672781944274902, 0.5453971028327942, -1.2724263668060303, 0.48204705119132996, 1.2884342670440674, 0.7359609603881836, -0.95654296875, -0.406982421875, 0.036376953125, 0, 
27, 4270739371, 0.09632819890975952, 0.7425063252449036, -0.07453487813472748, 0.6586728096008301, 1, 0.000005605630576610565, 0.00009252037853002548, 0.00005539972335100174, 0.0804826021194458, 0.004688739776611328, -0.009840965270996094, 9.658297538757324, 0.5626712441444397, -1.1809630393981934, 0.07708603888750076, 1.2722973823547363, 0.7618312835693359, -0.95654296875, -0.406005859375, 0.0380859375, 0, 
28, 4270747704, 0.09630169719457626, 0.7424459457397461, -0.07456748932600021, 0.6587410569190979, 1, -0.0000025015324354171753, 0.00008525233715772629, 0.00005277153104543686, 0.08045428991317749, 0.00480198860168457, -0.009688973426818848, 9.654900550842285, 0.5762616395950317, -1.162723183631897, -0.03439991921186447, 1.1723507642745972, 0.7256896495819092, -0.958251953125, -0.4033203125, 0.035400390625, 0, 
29, 4270756037, 0.09632709622383118, 0.7425137162208557, -0.07452824711799622, 0.6586653590202332, 1, -0.00001337006688117981, 0.000057962723076343536, 0.000055274926126003265, 0.08044028282165527, 0.004732787609100342, -0.009263277053833008, 9.653219223022461, 0.5679571628570557, -1.1116375923156738, -0.1838589608669281, 0.7970765233039856, 0.7601152062416077, -0.95458984375, -0.405517578125, 0.038818359375, 0, 
30, 4270764370, 0.09630105644464493, 0.742484450340271, -0.07457499951124191, 0.6586968302726746, 1, -0.000011960044503211975, 0.00003626663237810135, 0.00005719158798456192, 0.0807763934135437, 0.004540801048278809, -0.008856117725372314, 9.693554878234863, 0.5449179410934448, -1.0627764463424683, -0.16446898877620697, 0.4987219572067261, 0.7864722013473511, -0.955078125, -0.401611328125, 0.038818359375, 0, 
31, 4270772703, 0.09632029384374619, 0.7425667643547058, -0.07448690384626389, 0.6586112380027771, 1, -0.000013874843716621399, 0.000018741004168987274, 0.0000513540580868721, 0.08065593242645264, 0.004348635673522949, -0.009155511856079102, 9.679100036621094, 0.5218572616577148, -1.0987051725387573, -0.19080041348934174, 0.2577175796031952, 0.706197202205658, -0.955322265625, -0.406005859375, 0.034912109375, 0, 
32, 4270781036, 0.09631524980068207, 0.742550253868103, -0.07454176992177963, 0.6586244106292725, 1, -0.00003294646739959717, 0.000015060417354106903, 0.00004656519740819931, 0.08080893754959106, 0.0040503740310668945, -0.009243428707122803, 9.69745922088623, 0.48606428503990173, -1.1092557907104492, -0.45306459069252014, 0.2071039080619812, 0.6403431296348572, -0.957763671875, -0.403564453125, 0.036376953125, 0, 
33, 4270789369, 0.09646482020616531, 0.742594301700592, -0.07456354796886444, 0.6585503816604614, 1, -0.00003948435187339783, 0.000019832514226436615, 0.000036182813346385956, 0.080535888671875, 0.0042421817779541016, -0.00948554277420044, 9.664692878723145, 0.5090821385383606, -1.1383105516433716, -0.5429704785346985, 0.2727275490760803, 0.49756932258605957, -0.958251953125, -0.40771484375, 0.034912109375, 0, 
34, 4270797702, 0.09648113697767258, 0.7425678968429565, -0.07460234314203262, 0.6585734486579895, 1, -0.000038504600524902344, 0.00003198627382516861, 0.0000223526731133461, 0.08033841848373413, 0.00425267219543457, -0.00954359769821167, 9.640995979309082, 0.5103407502174377, -1.1452776193618774, -0.5294974446296692, 0.43986043334007263, 0.30738362669944763, -0.955810546875, -0.404541015625, 0.035888671875, 0, 
35, 4270806035, 0.09669908881187439, 0.7425811290740967, -0.07468978315591812, 0.6585166454315186, 1, -0.000046720728278160095, 0.00004034023731946945, 0.00002210307866334915, 0.08009523153305054, 0.00426560640335083, -0.009599745273590088, 9.611811637878418, 0.5118932127952576, -1.1520154476165771, -0.6424818634986877, 0.5547403693199158, 0.30395135283470154, -0.959228515625, -0.40380859375, 0.0361328125, 0, 
36, 4270814368, 0.09673202037811279, 0.7425464987754822, -0.07471282035112381, 0.6585482954978943, 1, -0.000040607526898384094, 0.00004664715379476547, 0.0000011296942830085754, 0.08004885911941528, 0.003973245620727539, -0.009196221828460693, 9.606247901916504, 0.47680899500846863, -1.1035908460617065, -0.5584158897399902, 0.6414700746536255, 0.01553503330796957, -0.957763671875, -0.404296875, 0.036376953125, 0, 
37, 4270822701, 0.09687763452529907, 0.7425707578659058, -0.07468677312135696, 0.6585022807121277, 1, -0.00003297626972198486, 0.00003734137862920761, -0.000006845220923423767, 0.08012646436691284, 0.004065215587615967, -0.009295046329498291, 9.615559577941895, 0.48784536123275757, -1.115450143814087, -0.45347440242767334, 0.5135013461112976, -0.09413230419158936, -0.952392578125, -0.402099609375, 0.035888671875, 0, 
38, 4270831034, 0.09689495712518692, 0.742546558380127, -0.0746871680021286, 0.6585270166397095, 1, -0.000013666227459907532, 0.000035653822124004364, -0.000006938353180885315, 0.08012735843658447, 0.004265248775482178, -0.00922781229019165, 9.615665435791016, 0.5118500590324402, -1.1073815822601318, -0.187931627035141, 0.49029484391212463, -0.09541302919387817, -0.955078125, -0.406005859375, 0.036865234375, 0, 
39, 4270839367, 0.09698627889156342, 0.7425817251205444, -0.07462809979915619, 0.6584806442260742, 1, -0.000007370486855506897, 0.00001550186425447464, -0.000004542991518974304, 0.08021914958953857, 0.0042359232902526855, -0.00909966230392456, 9.62668228149414, 0.5083311200141907, -1.0920031070709229, -0.10135552287101746, 0.2131744623184204, -0.0624731183052063, -0.95654296875, -0.408447265625, 0.0400390625, 0, 
40, 4270847700, 0.09700359404087067, 0.7425772547721863, -0.07462944090366364, 0.6584829092025757, 1, -0.000013930723071098328, 0.00000573229044675827, -0.000009797513484954834, 0.08055591583251953, 0.004312396049499512, -0.009370803833007812, 9.667096138000488, 0.5175082087516785, -1.1245414018630981, -0.19156885147094727, 0.07882780581712723, -0.13473086059093475, -0.954345703125, -0.404541015625, 0.033935546875, 0, 
41, 4270856033, 0.0969158411026001, 0.7426377534866333, -0.07437160611152649, 0.6584568023681641, 1, -0.000015255063772201538, -0.000004516914486885071, -0.00000753253698348999, 0.08084672689437866, 0.004389941692352295, -0.009613096714019775, 9.701994895935059, 0.5268140435218811, -1.1536176204681396, -0.20978055894374847, -0.06211450695991516, -0.10358395427465439, -0.958984375, -0.40625, 0.0390625, 0, 
42, 4270864366, 0.09693407267332077, 0.742640495300293, -0.07438484579324722, 0.6584495306015015, 1, -0.000022416934370994568, -0.0000071339309215545654, -0.0000030118972063064575, 0.08093845844268799, 0.004543900489807129, -0.009613454341888428, 9.713003158569336, 0.5452898144721985, -1.153660535812378, -0.3082673251628876, -0.09810251742601395, -0.04141821712255478, -0.9560546875, -0.403564453125, 0.041015625, 0, 
43, 4270872699, 0.09697701781988144, 0.7426779270172119, -0.07429581880569458, 0.6584110856056213, 1, -0.00003982521593570709, 2.7474015951156616e-7, 0.000007332302629947662, 0.08098489046096802, 0.004712462425231934, -0.009812712669372559, 9.718574523925781, 0.5655180811882019, -1.17757248878479, -0.5476579070091248, 0.003778099315240979, 0.10083042830228806, -0.9541015625, -0.405029296875, 0.038330078125, 0, 
44, 4270881032, 0.09700128436088562, 0.7426719665527344, -0.07433793693780899, 0.6584094762802124, 1, -0.00004651397466659546, 5.187466740608215e-7, 0.000015667639672756195, 0.08095449209213257, 0.004773139953613281, -0.009751319885253906, 9.714926719665527, 0.572799563407898, -1.1702052354812622, -0.6396386623382568, 0.007133563980460167, 0.2154541313648224, -0.955078125, -0.406494140625, 0.036865234375, 0, 
45, 4270889365, 0.0970374345779419, 0.7426947951316833, -0.07425546646118164, 0.6583876609802246, 1, -0.00005246512591838837, 0.00002114754170179367, 0.000022574327886104584, 0.08092385530471802, 0.004939436912536621, -0.009552478790283203, 9.711250305175781, 0.5927560925483704, -1.1463432312011719, -0.721476137638092, 0.2908112108707428, 0.31043168902397156, -0.951416015625, -0.405517578125, 0.035400390625, 0, 
46, 4270897698, 0.09707105159759521, 0.7426576018333435, -0.07431504875421524, 0.658417820930481, 1, -0.00006568245589733124, 0.00004368927329778671, 0.00002792198210954666, 0.08049666881561279, 0.004403591156005859, -0.009748220443725586, 9.659985542297363, 0.5284520387649536, -1.1698331832885742, -0.9032346606254578, 0.6007946729660034, 0.3839702010154724, -0.955810546875, -0.407470703125, 0.033935546875, 0, 
47, 4270906031, 0.09733037650585175, 0.7426436543464661, -0.07447247952222824, 0.6583776473999023, 1, -0.00008141808211803436, 0.000038224272429943085, 0.00002432148903608322, 0.08103138208389282, 0.0048264265060424805, -0.009296417236328125, 9.724154472351074, 0.5791943073272705, -1.115614652633667, -1.1196237802505493, 0.5256425142288208, 0.3344578444957733, -0.95751953125, -0.403564453125, 0.0380859375, 0, 
48, 4270914364, 0.0973900705575943, 0.7426044344902039, -0.07454218715429306, 0.6584051251411438, 1, -0.00009201280772686005, 0.0000439593568444252, 0.000018230639398097992, 0.08083313703536987, 0.004534423351287842, -0.009213864803314209, 9.700364112854004, 0.5441524982452393, -1.1057078838348389, -1.265317678451538, 0.6045087575912476, 0.25069931149482727, -0.955810546875, -0.404541015625, 0.032470703125, 0, 
49, 4270922697, 0.09762304276227951, 0.7425835132598877, -0.07465462386608124, 0.6583815813064575, 1, -0.00009593740105628967, 0.000051830895245075226, 0.000016673468053340912, 0.08048242330551147, 0.004396557807922363, -0.00903928279876709, 9.658276557922363, 0.5276079773902893, -1.0847572088241577, -1.3192867040634155, 0.712754487991333, 0.2292858213186264, -0.952880859375, -0.404541015625, 0.036865234375, 0, 
50, 4270931030, 0.09768557548522949, 0.7425510883331299, -0.07472220808267593, 0.6584011912345886, 1, -0.00009261257946491241, 0.00003406498581171036, 0.000013452954590320587, 0.08037513494491577, 0.0036786794662475586, -0.009061574935913086, 9.645401000976562, 0.44145914912223816, -1.0874323844909668, -1.273565411567688, 0.46844595670700073, 0.18499882519245148, -0.95361328125, -0.406982421875, 0.036376953125, 0, 
51, 4270939363, 0.09780305624008179, 0.7425613403320312, -0.07471544295549393, 0.6583729386329651, 1, -0.00006831251084804535, 0.000016159377992153168, 0.000013125129044055939, 0.0804516077041626, 0.0033575892448425293, -0.009086012840270996, 9.65457820892334, 0.40292659401893616, -1.0903650522232056, -0.9394020438194275, 0.22221627831459045, 0.18049071729183197, -0.95458984375, -0.406494140625, 0.038330078125, 0, 
52, 4270947696, 0.0978396087884903, 0.7425442337989807, -0.07474414259195328, 0.6583835482597351, 1, -0.0000469498336315155, 0.0000192420557141304, -1.8812716007232666e-7, 0.08065050840377808, 0.003295421600341797, -0.009173929691314697, 9.678447723388672, 0.3954663872718811, -1.100915551185608, -0.6456324458122253, 0.26460784673690796, -0.0025870376266539097, -0.953369140625, -0.405517578125, 0.034423828125, 0, 
53, 4270956029, 0.09797247499227524, 0.7425479888916016, -0.07476063072681427, 0.6583576798439026, 1, -0.00003061257302761078, 0.000017317943274974823, -0.0000037364661693573, 0.08077400922775269, 0.003570854663848877, -0.009322404861450195, 9.693267822265625, 0.42851966619491577, -1.118733286857605, -0.4209699332714081, 0.23814834654331207, -0.0513821542263031, -0.955322265625, -0.405517578125, 0.034912109375, 0, 
54, 4270964362, 0.0979878231883049, 0.7425267696380615, -0.07476364076137543, 0.6583790183067322, 1, -0.000013908371329307556, 0.000030771829187870026, -0.000003937631845474243, 0.08040845394134521, 0.0037407279014587402, -0.009320378303527832, 9.64940071105957, 0.44890570640563965, -1.118490219116211, -0.19126148521900177, 0.42315995693206787, -0.054148491472005844, -0.954345703125, -0.403076171875, 0.036376953125, 0, 
55, 4270972695, 0.09819914400577545, 0.7425086498260498, -0.07487822324037552, 0.6583548784255981, 1, -0.000016277655959129333, 0.000032209791243076324, -0.000012286007404327393, 0.08037930727005005, 0.004260361194610596, -0.00922316312789917, 9.645901679992676, 0.5112637281417847, -1.1068238019943237, -0.2238427847623825, 0.44293415546417236, -0.16895148158073425, -0.955810546875, -0.408935546875, 0.034912109375, 0, 
56, 4270981028, 0.09821474552154541, 0.742484986782074, -0.07488034665584564, 0.6583790183067322, 1, -0.00001354515552520752, 0.000034586526453495026, -0.000004293397068977356, 0.08041083812713623, 0.00452190637588501, -0.009202122688293457, 9.649685859680176, 0.5426504015922546, -1.1042988300323486, -0.1862667053937912, 0.4756178855895996, -0.05904081091284752, -0.953857421875, -0.407470703125, 0.033447265625, 0, 
57, 4270989361, 0.09836922585964203, 0.7424719929695129, -0.07495328038930893, 0.6583623290061951, 1, -0.00002655014395713806, 0.000028162263333797455, -0.000002294778823852539, 0.08034998178482056, 0.004599034786224365, -0.00902867317199707, 9.642382621765137, 0.5519065856933594, -1.0834840536117554, -0.3651052713394165, 0.3872743844985962, -0.031556736677885056, -0.95703125, -0.407958984375, 0.035888671875, 0, 
58, 4270997694, 0.09839014708995819, 0.7424499988555908, -0.07497958838939667, 0.6583810448646545, 1, -0.000033486634492874146, 0.000027443282306194305, 0.000009492971003055573, 0.08045834302902222, 0.004905045032501221, -0.009145140647888184, 9.655386924743652, 0.588628888130188, -1.0974607467651367, -0.46049264073371887, 0.37738728523254395, 0.13054291903972626, -0.953369140625, -0.406494140625, 0.034912109375, 0, 
59, 4271006027, 0.09847313165664673, 0.7424470782279968, -0.07498157769441605, 0.65837162733078, 1, -0.00004577077925205231, 0.000018996186554431915, 0.0000067213550209999084, 0.0805501937866211, 0.004720866680145264, -0.009170830249786377, 9.666409492492676, 0.5665262937545776, -1.10054349899292, -0.6294186115264893, 0.2612267732620239, 0.09242896735668182, -0.952880859375, -0.405517578125, 0.035400390625, 0, 
60, 4271014360, 0.0984894260764122, 0.7424299120903015, -0.07501323521137238, 0.6583849191665649, 1, -0.000033507123589515686, 0.0000194525346159935, 0.000015686266124248505, 0.08051943778991699, 0.004491686820983887, -0.009122073650360107, 9.662718772888184, 0.5390239357948303, -1.094692587852478, -0.4607744514942169, 0.2675022482872009, 0.21571028232574463, -0.95361328125, -0.408935546875, 0.035888671875, 0, 
61, 4271022693, 0.09855296462774277, 0.7424246072769165, -0.07500588148832321, 0.6583821773529053, 1, -0.000027067959308624268, 0.000022067688405513763, 0.00001653563231229782, 0.0804746150970459, 0.004535794258117676, -0.009195029735565186, 9.657340049743652, 0.5443167686462402, -1.1034477949142456, -0.3722260594367981, 0.3034646809101105, 0.2273903638124466, -0.953369140625, -0.405029296875, 0.032958984375, 0, 
62, 4271031026, 0.09855970740318298, 0.7424089312553406, -0.07503800094127655, 0.6583951115608215, 1, -0.00002660788595676422, 0.000017414800822734833, 0.00002225395292043686, 0.08056807518005371, 0.004686415195465088, -0.009465217590332031, 9.66855525970459, 0.56239253282547, -1.135871171951294, -0.36589932441711426, 0.23948028683662415, 0.30602607131004333, -0.95458984375, -0.406982421875, 0.036376953125, 0, 
63, 4271039359, 0.09866134822368622, 0.7423904538154602, -0.07510029524564743, 0.6583937406539917, 1, -0.000026259571313858032, 0.000029202550649642944, 0.00003466382622718811, 0.08052313327789307, 0.004775106906890869, -0.009462177753448486, 9.663162231445312, 0.573035717010498, -1.1355066299438477, -0.36110952496528625, 0.40157997608184814, 0.4766809344291687, -0.957275390625, -0.408203125, 0.033935546875, 0, 
64, 4271047692, 0.09866984188556671, 0.7423617243766785, -0.07515984028577805, 0.6584180593490601, 1, -0.00004642084240913391, 0.000031958334147930145, 0.00004344899207353592, 0.08060091733932495, 0.004785358905792236, -0.009609401226043701, 9.67249584197998, 0.5742660164833069, -1.1531741619110107, -0.638357937335968, 0.43947622179985046, 0.5974904298782349, -0.952880859375, -0.409912109375, 0.034423828125, 0, 
65, 4271056025, 0.0987389013171196, 0.7423388957977295, -0.0751899778842926, 0.6584300994873047, 1, -0.000065607950091362, 0.000039492733776569366, 0.00004472862929105759, 0.08056968450546265, 0.004412710666656494, -0.009391069412231445, 9.668747901916504, 0.5295464396476746, -1.126973271369934, -0.9022101759910583, 0.5430858135223389, 0.6150873303413391, -0.955078125, -0.410400390625, 0.036376953125, 0, 
66, 4271064358, 0.09874861687421799, 0.7423127889633179, -0.07526669651269913, 0.6584492325782776, 1, -0.000058611854910850525, 0.000024692155420780182, 0.00005474034696817398, 0.08047807216644287, 0.0042997002601623535, -0.009171128273010254, 9.657754898071289, 0.5159844160079956, -1.1005797386169434, -0.8060030937194824, 0.3395550847053528, 0.7527639269828796, -0.954833984375, -0.405517578125, 0.034912109375, 0, 
67, 4271072691, 0.0987294539809227, 0.7423150539398193, -0.07521180808544159, 0.6584558486938477, 1, -0.00005229562520980835, 0.000016582198441028595, 0.00004938151687383652, 0.08043152093887329, 0.003910243511199951, -0.008999884128570557, 9.652168273925781, 0.46924811601638794, -1.0800288915634155, -0.7191451787948608, 0.228030726313591, 0.6790717840194702, -0.953857421875, -0.409423828125, 0.032958984375, 0, 
68, 4271081024, 0.09872057288885117, 0.7423055171966553, -0.07527308166027069, 0.6584609150886536, 1, -0.00003396347165107727, 0.000003439374268054962, 0.000052980147302150726, 0.08050823211669922, 0.004085719585418701, -0.008812963962554932, 9.661375045776367, 0.49030601978302, -1.0575973987579346, -0.4670499563217163, 0.0472966805100441, 0.7285584211349487, -0.953857421875, -0.409423828125, 0.034912109375, 0, 
69, 4271089357, 0.09868374466896057, 0.7423275113105774, -0.07520243525505066, 0.6584497094154358, 1, -0.00003133900463581085, -0.000011928379535675049, 0.00004188064485788345, 0.0805242657661438, 0.003971278667449951, -0.008949577808380127, 9.663297653198242, 0.4765724539756775, -1.0739922523498535, -0.43095943331718445, -0.16403356194496155, 0.5759232640266418, -0.954833984375, -0.408935546875, 0.033935546875, 0, 
70, 4271097690, 0.09866547584533691, 0.7423241138458252, -0.07525142282247543, 0.658450722694397, 1, -0.00001858547329902649, -0.0000031348317861557007, 0.0000491878017783165, 0.08064651489257812, 0.004071354866027832, -0.008889496326446533, 9.677968978881836, 0.48858216404914856, -1.0667818784713745, -0.25557881593704224, -0.043108753859996796, 0.6764078736305237, -0.958984375, -0.41015625, 0.03564453125, 0, 
71, 4271106023, 0.09871377795934677, 0.7423322796821594, -0.07527708262205124, 0.6584312915802002, 1, -0.00002703443169593811, -0.00000918656587600708, 0.000037838704884052277, 0.08063232898712158, 0.004247009754180908, -0.008919894695281982, 9.676265716552734, 0.5096614956855774, -1.0704301595687866, -0.37176498770713806, -0.12632940709590912, 0.5203403830528259, -0.95556640625, -0.406982421875, 0.036865234375, 0, 
72, 4271114356, 0.0987180769443512, 0.7423306703567505, -0.0753156915307045, 0.6584280133247375, 1, -0.00002867169678211212, -0.000004520639777183533, 0.000026040710508823395, 0.08073920011520386, 0.004271507263183594, -0.008890211582183838, 9.689091682434082, 0.512601375579834, -1.0668684244155884, -0.39427992701530457, -0.062165748327970505, 0.3580998182296753, -0.954833984375, -0.406494140625, 0.033935546875, 0, 
73, 4271122689, 0.09869302809238434, 0.7423391342163086, -0.0752314105629921, 0.658431887626648, 1, -0.000013500452041625977, 0.0000047655776143074036, 0.000017023645341396332, 0.08069390058517456, 0.004374682903289795, -0.00887531042098999, 9.68365478515625, 0.5249829292297363, -1.0650798082351685, -0.1856519728899002, 0.06553401798009872, 0.2341012954711914, -0.9560546875, -0.407958984375, 0.035888671875, 0, 
74, 4271131022, 0.09870146214962006, 0.7423400282859802, -0.07525477558374405, 0.6584269404411316, 1, -0.000021612271666526794, -0.000005705282092094421, 0.00001162756234407425, 0.08038920164108276, 0.0044342875480651855, -0.008890807628631592, 9.647089004516602, 0.5321357250213623, -1.0669394731521606, -0.297201931476593, -0.07845640182495117, 0.1598968654870987, -0.954345703125, -0.408935546875, 0.031494140625, 0, 
75, 4271139355, 0.09876948595046997, 0.7423469424247742, -0.07526399940252304, 0.6584080457687378, 1, -0.000028049573302268982, -0.000010458752512931824, 0.00000791158527135849, 0.08046656847000122, 0.0044332146644592285, -0.009150564670562744, 9.656373977661133, 0.5320069789886475, -1.098111629486084, -0.3857247233390808, -0.14382390677928925, 0.10879645496606827, -0.95751953125, -0.40673828125, 0.035888671875, 0, 
76, 4271147688, 0.0987793505191803, 0.742357075214386, -0.07527569681406021, 0.6583938002586365, 1, -0.000014813616871833801, -0.000017503276467323303, 5.392357707023621e-7, 0.08060342073440552, 0.0042948126792907715, -0.009197652339935303, 9.672796249389648, 0.5153980851173401, -1.1037623882293701, -0.20371001958847046, -0.2406969666481018, 0.007415321189910173, -0.95556640625, -0.408447265625, 0.036376953125, 0, 
77, 4271156021, 0.09884555637836456, 0.7423664331436157, -0.07529449462890625, 0.658371090888977, 1, -0.000014716759324073792, -0.00001632794737815857, 0.00001270044595003128, 0.08057206869125366, 0.004477381706237793, -0.008910059928894043, 9.669034004211426, 0.5373072624206543, -1.0692498683929443, -0.202378049492836, -0.22453439235687256, 0.1746506541967392, -0.95458984375, -0.411376953125, 0.034912109375, 0, 
78, 4271164354, 0.09885081648826599, 0.742375373840332, -0.07532085478305817, 0.6583571434020996, 1, -0.000021280720829963684, -0.000018225982785224915, 0.000014592893421649933, 0.08052664995193481, 0.00447613000869751, -0.009050071239471436, 9.663583755493164, 0.5371570587158203, -1.0860519409179688, -0.29264262318611145, -0.2506352961063385, 0.20067472755908966, -0.954345703125, -0.408935546875, 0.032958984375, 0, 
79, 4271172687, 0.09876618534326553, 0.7423988580703735, -0.07517372816801071, 0.6583601236343384, 1, -0.000017220154404640198, -0.00001358427107334137, 0.000015201978385448456, 0.08070898056030273, 0.004503607749938965, -0.008884072303771973, 9.685463905334473, 0.5404547452926636, -1.0661314725875854, -0.2368035912513733, -0.1868046075105667, 0.20905058085918427, -0.953857421875, -0.408935546875, 0.034912109375, 0, 
80, 4271181020, 0.09877315163612366, 0.7424111366271973, -0.07519885152578354, 0.6583424210548401, 1, -0.00002164021134376526, -0.00002287141978740692, 0.00001184362918138504, 0.08070868253707886, 0.004318594932556152, -0.00897824764251709, 9.685428619384766, 0.5182518362998962, -1.077432632446289, -0.2975861430168152, -0.31451717019081116, 0.16286809742450714, -0.951904296875, -0.408447265625, 0.033935546875, 0, 
81, 4271189353, 0.09887327253818512, 0.742407500743866, -0.07524672895669937, 0.6583260297775269, 1, -2.551823854446411e-7, -0.0000032279640436172485, 0.000005119480192661285, 0.08083164691925049, 0.0043631792068481445, -0.009255826473236084, 9.70018482208252, 0.5236024260520935, -1.110743522644043, -0.0035091498866677284, -0.04438946768641472, 0.07040071487426758, -0.9541015625, -0.408447265625, 0.036376953125, 0, 
82, 4271197686, 0.09886137396097183, 0.7423986792564392, -0.07524271309375763, 0.6583382487297058, 1, 0.00001156982034444809, 0.000014628283679485321, 0.000007431022822856903, 0.08087742328643799, 0.004453599452972412, -0.009179651737213135, 9.70567798614502, 0.534453272819519, -1.1016021966934204, 0.15910282731056213, 0.20116141438484192, 0.10218799859285355, -0.9560546875, -0.407470703125, 0.035888671875, 0, 
83, 4271206019, 0.09885681420564651, 0.7423884868621826, -0.0751824900507927, 0.6583572626113892, 1, 0.00002552848309278488, 0.000023662112653255463, 0.000010692514479160309, 0.08048027753829956, 0.004163622856140137, -0.009210169315338135, 9.658019065856934, 0.49965500831604004, -1.1052643060684204, 0.35105592012405396, 0.325390487909317, 0.147038534283638, -0.95458984375, -0.408447265625, 0.036376953125, 0, 
84, 4271214352, 0.09883114695549011, 0.7423776984214783, -0.0751628428697586, 0.6583755612373352, 1, 0.000032446347177028656, 0.0000209147110581398, 0.000005573965609073639, 0.08038902282714844, 0.0041465163230896, -0.009191811084747314, 9.64706802368164, 0.49760153889656067, -1.1030616760253906, 0.44618716835975647, 0.28760942816734314, 0.07665059715509415, -0.955322265625, -0.410888671875, 0.033935546875, 0, 
85, 4271222685, 0.09885096549987793, 0.7423593401908875, -0.07511553168296814, 0.6583986878395081, 1, 0.00002556387335062027, 0.000033807940781116486, 6.919726729393005e-7, 0.08040541410446167, 0.004419505596160889, -0.009126842021942139, 9.64903450012207, 0.5303618311882019, -1.0952647924423218, 0.35154256224632263, 0.4649111330509186, 0.009515687823295593, -0.948974609375, -0.407958984375, 0.033447265625, 0, 
86, 4271231018, 0.09885095804929733, 0.7423375248908997, -0.07510481029748917, 0.6584244966506958, 1, 0.000006859190762042999, 0.000034798868000507355, -0.000003039836883544922, 0.0802537202835083, 0.004632771015167236, -0.00903010368347168, 9.630830764770508, 0.5559546947479248, -1.0836557149887085, 0.09432440996170044, 0.4785379469394684, -0.04180242866277695, -0.951416015625, -0.408447265625, 0.035400390625, 0, 
87, 4271239351, 0.09889751672744751, 0.7423186898231506, -0.07507383823394775, 0.6584422588348389, 1, -1.7136335372924805e-7, 0.00003088358789682388, -0.0000073499977588653564, 0.08029907941818237, 0.004525721073150635, -0.00885683298110962, 9.636274337768555, 0.5431082248687744, -1.0628623962402344, -0.0023565099108964205, 0.42469683289527893, -0.10107377916574478, -0.952392578125, -0.409912109375, 0.033935546875, 0, 
88, 4271247684, 0.09890183806419373, 0.7422958612442017, -0.07505517452955246, 0.6584694385528564, 1, 0.00000878889113664627, 0.00003754999488592148, -0.000011615455150604248, 0.0802079439163208, 0.004390120506286621, -0.008944213390350342, 9.625337600708008, 0.5268355011940002, -1.0733484029769897, 0.120860755443573, 0.5163701772689819, -0.15973034501075745, -0.95263671875, -0.412353515625, 0.037841796875, 0, 
89, 4271256017, 0.09892629832029343, 0.7422794103622437, -0.07499750703573227, 0.6584908962249756, 1, 0.00002260413020849228, 0.00003132689744234085, -0.00001099705696105957, 0.08040648698806763, 0.004543185234069824, -0.00872337818145752, 9.649163246154785, 0.5452039837837219, -1.0468472242355347, 0.31084153056144714, 0.43079304695129395, -0.15122643113136292, -0.952392578125, -0.408447265625, 0.033935546875, 0, 
90, 4271264350, 0.09890933334827423, 0.7422615885734558, -0.07495246082544327, 0.6585187315940857, 1, 0.00004253257066011429, 0.000035830773413181305, -0.000017385929822921753, 0.08049839735031128, 0.004498481750488281, -0.00873345136642456, 9.66019344329834, 0.5398393869400024, -1.0480560064315796, 0.584888219833374, 0.49272820353507996, -0.23908324539661407, -0.953857421875, -0.410400390625, 0.034423828125, 0, 
91, 4271272683, 0.09893479198217392, 0.7422465085983276, -0.07490447908639908, 0.6585373282432556, 1, 0.000053233467042446136, 0.00002817343920469284, -0.000009622424840927124, 0.08051574230194092, 0.004516661167144775, -0.0090789794921875, 9.662275314331055, 0.5420209765434265, -1.089521050453186, 0.7320420145988464, 0.3874281048774719, -0.13232313096523285, -0.954833984375, -0.409912109375, 0.033935546875, 0, 
92, 4271281016, 0.09889202564954758, 0.7422289848327637, -0.07485292851924896, 0.6585693359375, 1, 0.00006635021418333054, 0.000037445686757564545, -0.000004814937710762024, 0.08045709133148193, 0.004807949066162109, -0.00930333137512207, 9.65523624420166, 0.5769768953323364, -1.1164443492889404, 0.9124175310134888, 0.5149357914924622, -0.06621281057596207, -0.953369140625, -0.411865234375, 0.032958984375, 0, 
93, 4271289349, 0.09893135726451874, 0.7422106266021729, -0.07484181970357895, 0.6585853099822998, 1, 0.00006238091737031937, 0.00002683233469724655, 0.000003150664269924164, 0.08068782091140747, 0.005142509937286377, -0.009326636791229248, 9.682926177978516, 0.6171261072158813, -1.1192409992218018, 0.8578336238861084, 0.3689858615398407, 0.0433264821767807, -0.955078125, -0.409423828125, 0.035888671875, 0, 
94, 4271297682, 0.0988980382680893, 0.7422038316726685, -0.07481811195611954, 0.6586006879806519, 1, 0.00004101451486349106, 0.000016015954315662384, 0.000007261522114276886, 0.08082443475723267, 0.00507885217666626, -0.009078264236450195, 9.699319839477539, 0.6094865798950195, -1.0894352197647095, 0.5640127062797546, 0.22024402022361755, 0.09985709935426712, -0.95263671875, -0.410888671875, 0.035888671875, 0, 
95, 4271306015, 0.09891500324010849, 0.7421983480453491, -0.07478822767734528, 0.6586077809333801, 1, 0.000017627142369747162, 0.00000925455242395401, 0.000011968426406383514, 0.08073210716247559, 0.004954814910888672, -0.00892418622970581, 9.688240051269531, 0.5946015119552612, -1.070945143699646, 0.24240027368068695, 0.12726432085037231, 0.16458424925804138, -0.953125, -0.412353515625, 0.036865234375, 0, 
96, 4271314348, 0.09889179468154907, 0.7421935200691223, -0.07479017227888107, 0.6586164832115173, 1, 0.000016178004443645477, 0.000007937662303447723, 0.000018876977264881134, 0.080807626247406, 0.004738509654998779, -0.008846700191497803, 9.697301864624023, 0.5686438679695129, -1.0616464614868164, 0.2224724292755127, 0.10915505886077881, 0.25958746671676636, -0.9541015625, -0.412841796875, 0.033935546875, 0, 
97, 4271322681, 0.09878981858491898, 0.7421988248825073, -0.07463573664426804, 0.658643364906311, 1, 0.000031684525310993195, 0.000012322328984737396, 0.00001844111829996109, 0.08073043823242188, 0.004399716854095459, -0.008831381797790527, 9.688039779663086, 0.527987003326416, -1.059808611869812, 0.43571096658706665, 0.16945098340511322, 0.2535937428474426, -0.95068359375, -0.408935546875, 0.037353515625, 0, 
98, 4271331014, 0.09875049442052841, 0.7421904802322388, -0.07462011277675629, 0.6586604118347168, 1, 0.000039921142160892487, 0.000016839243471622467, 0.000017630867660045624, 0.08053302764892578, 0.004336178302764893, -0.008998572826385498, 9.664349555969238, 0.5203621983528137, -1.0798718929290771, 0.5489771366119385, 0.23156550526618958, 0.24245154857635498, -0.954345703125, -0.412353515625, 0.032470703125, 0, 
99, 4271339347, 0.09881269186735153, 0.74217289686203, -0.07463864237070084, 0.6586688756942749, 1, 0.00006427150219678879, 0.000021095387637615204, 0.000007203780114650726, 0.08033579587936401, 0.004409730434417725, -0.009073317050933838, 9.640680313110352, 0.5291887521743774, -1.0888415575027466, 0.8838319182395935, 0.2900940179824829, 0.09906305372714996, -0.95361328125, -0.409912109375, 0.035888671875, 0, 
100, 4271347680, 0.09876175969839096, 0.7421556711196899, -0.07460618764162064, 0.658699631690979, 1, 0.000059506855905056, 0.0000336160883307457, 0.000014712102711200714, 0.08020031452178955, 0.004667401313781738, -0.00917750597000122, 9.624422073364258, 0.5601105093955994, -1.1013447046279907, 0.8183107972145081, 0.46227291226387024, 0.20231404900550842, -0.951171875, -0.411865234375, 0.036376953125, 0, 
101, 4271356013, 0.09873414039611816, 0.7421303391456604, -0.07452508062124252, 0.6587413549423218, 1, 0.000029369257390499115, 0.0000457102432847023, 0.000014410354197025299, 0.08029234409332275, 0.0050293803215026855, -0.008851170539855957, 9.635465621948242, 0.6035497188568115, -1.062182903289795, 0.40387240052223206, 0.6285860538482666, 0.19816452264785767, -0.951171875, -0.414306640625, 0.035888671875, 0, 
102, 4271364346, 0.09872755408287048, 0.742106556892395, -0.07453611493110657, 0.6587678790092468, 1, -0.000003203749656677246, 0.000033845193684101105, 0.000018016435205936432, 0.08006477355957031, 0.004951298236846924, -0.008982658386230469, 9.608156204223633, 0.5941795110702515, -1.077962040901184, -0.0440564826130867, 0.46542343497276306, 0.24775363504886627, -0.950927734375, -0.407470703125, 0.036376953125, 0, 
103, 4271372679, 0.0988432765007019, 0.7420753836631775, -0.07461897283792496, 0.6587762832641602, 1, -0.000029928982257843018, 0.000026973895728588104, 0.000021402724087238312, 0.08015525341033936, 0.00491708517074585, -0.00862586498260498, 9.619013786315918, 0.59007328748703, -1.0351454019546509, -0.4115695357322693, 0.37093251943588257, 0.29432034492492676, -0.95361328125, -0.414306640625, 0.034423828125, 0, 
104, 4271381012, 0.09884292632341385, 0.742074191570282, -0.07465051114559174, 0.6587741374969482, 1, -0.00002140924334526062, -0.0000037979334592819214, 0.000024736858904361725, 0.0802459716796875, 0.004471242427825928, -0.008636832237243652, 9.629900932312012, 0.5365704894065857, -1.0364612340927124, -0.2944100499153137, -0.052227430045604706, 0.34016987681388855, -0.951416015625, -0.409912109375, 0.034423828125, 0, 
105, 4271389345, 0.09872561693191528, 0.7421013712882996, -0.07447949051856995, 0.658780574798584, 1, 0.000003489665687084198, -0.000021124258637428284, 0.00001822691410779953, 0.08045965433120728, 0.004223048686981201, -0.008789122104644775, 9.655543327331543, 0.5067861080169678, -1.054736852645874, 0.04798826575279236, -0.2904910147190094, 0.2506480813026428, -0.951904296875, -0.410400390625, 0.033447265625, 0, 
106, 4271397678, 0.09867598116397858, 0.742110013961792, -0.07447429746389389, 0.6587787866592407, 1, 0.0000401986762881279, -0.000009994953870773315, 0.000029294751584529877, 0.08067548274993896, 0.004082858562469482, -0.009371578693389893, 9.68144416809082, 0.4899625778198242, -1.1246343851089478, 0.552793562412262, -0.13744598627090454, 0.40284788608551025, -0.9541015625, -0.409423828125, 0.035400390625, 0, 
107, 4271406011, 0.09871707856655121, 0.7420957684516907, -0.07451289147138596, 0.6587842702865601, 1, 0.000058698467910289764, 0.000010943971574306488, 0.000035678036510944366, 0.0805395245552063, 0.004367947578430176, -0.009434759616851807, 9.665129661560059, 0.524174690246582, -1.132216215133667, 0.8071942925453186, 0.1504964381456375, 0.4906279146671295, -0.949951171875, -0.411865234375, 0.031982421875, 0, 
108, 4271414344, 0.09864986687898636, 0.742081880569458, -0.074496328830719, 0.6588118672370911, 1, 0.000060512684285640717, 0.00002643931657075882, 0.00003700423985719681, 0.0806049108505249, 0.004864990711212158, -0.009813904762268066, 9.672975540161133, 0.5838220715522766, -1.1777160167694092, 0.8321424722671509, 0.36358126997947693, 0.5088651776313782, -0.95556640625, -0.41650390625, 0.033935546875, 0, 
109, 4271422677, 0.09860990941524506, 0.7420499920845032, -0.07445763796567917, 0.6588582396507263, 1, 0.00004049669951200485, 0.000049355439841747284, 0.00005032029002904892, 0.08019542694091797, 0.0053171515464782715, -0.009781062602996826, 9.623835563659668, 0.6380836367607117, -1.1737743616104126, 0.5568918585777283, 0.6787132620811462, 0.6919813752174377, -0.9541015625, -0.409912109375, 0.036865234375, 0, 
110, 4271431010, 0.0985695868730545, 0.7420100569725037, -0.07447893172502518, 0.6589068174362183, 1, 0.000014641322195529938, 0.000057394616305828094, 0.00005145091563463211, 0.0799207091331482, 0.005552828311920166, -0.009271204471588135, 9.590867042541504, 0.6663661003112793, -1.112588882446289, 0.2013406753540039, 0.7892642021179199, 0.7075291872024536, -0.95263671875, -0.409423828125, 0.035888671875, 0, 
111, 4271439343, 0.09850740432739258, 0.7419848442077637, -0.074391208589077, 0.658954381942749, 1, -4.880130290985107e-7, 0.000047060661017894745, 0.000039723701775074005, 0.07973986864089966, 0.005712926387786865, -0.00926297903060913, 9.56916618347168, 0.6855785250663757, -1.1116018295288086, -0.0067109293304383755, 0.6471564173698425, 0.5462619662284851, -0.95361328125, -0.410400390625, 0.036376953125, 0, 
112, 4271447676, 0.0984942838549614, 0.741972804069519, -0.07440385967493057, 0.6589685082435608, 1, 4.498288035392761e-7, 0.000016313977539539337, 0.000021704472601413727, 0.07923334836959839, 0.005280852317810059, -0.008770346641540527, 9.508381843566895, 0.6337275505065918, -1.0524835586547852, 0.006185837555676699, 0.22434228658676147, 0.2984698414802551, -0.953125, -0.411865234375, 0.03857421875, 0, 
113, 4271456009, 0.0985308587551117, 0.7419857382774353, -0.07437092065811157, 0.6589521169662476, 1, -0.0000033676624298095703, -0.000017277896404266357, -0.000003121793270111084, 0.0795513391494751, 0.004833340644836426, -0.008583486080169678, 9.54654312133789, 0.5800239443778992, -1.030059576034546, -0.046310536563396454, -0.23759762942790985, -0.042929455637931824, -0.95361328125, -0.414306640625, 0.035888671875, 0, 
114, 4271464342, 0.0985695943236351, 0.741992175579071, -0.07437776029109955, 0.6589382886886597, 1, -0.00003466382622718811, -0.000012313947081565857, -0.00002084486186504364, 0.07924014329910278, 0.004132568836212158, -0.008054792881011963, 9.509197235107422, 0.49592819809913635, -0.966613233089447, -0.4766808748245239, -0.16933570802211761, -0.2866488993167877, -0.9521484375, -0.410400390625, 0.035888671875, 0, 
115, 4271472675, 0.09864035993814468, 0.741997241973877, -0.07426344603300095, 0.6589349508285522, 1, -0.00005916692316532135, 0.000003269873559474945, -0.00007347017526626587, 0.07907819747924805, 0.0034489035606384277, -0.0069138407707214355, 9.489762306213379, 0.4138849377632141, -0.8296940326690674, -0.8136361241340637, 0.04496578872203827, -1.010327935218811, -0.95166015625, -0.410400390625, 0.037353515625, 0, 
116, 4271481008, 0.09876128286123276, 0.7420077323913574, -0.07416736334562302, 0.6589159369468689, 1, -0.000028094276785850525, -0.0000024568289518356323, -0.0001520700752735138, 0.08039456605911255, 0.003072082996368408, -0.005197346210479736, 9.647661209106445, 0.3705143928527832, -0.623723030090332, -0.3863395154476166, -0.03378517925739288, -2.0911972522735596, -0.9501953125, -0.412353515625, 0.035400390625, 0, 
117, 4271489341, 0.09883527457714081, 0.7419914603233337, -0.07382632046937943, 0.6589613556861877, 1, 0.000018387101590633392, 0.00006868410855531693, -0.00023212097585201263, 0.08057171106338501, 0.0026679635047912598, -0.004571676254272461, 9.668953895568848, 0.32242804765701294, -0.5479574203491211, 0.2528509199619293, 0.9445120692253113, -3.1920204162597656, -0.95166015625, -0.409912109375, 0.037353515625, 0, 
118, 4271497674, 0.09900099039077759, 0.742007851600647, -0.07355552166700363, 0.6589483022689819, 0.9999999403953552, 0.00005463976413011551, 0.00001849886029958725, -0.0003109760582447052, 0.07877588272094727, 0.002407550811767578, -0.005715370178222656, 9.453414916992188, 0.2915116250514984, -0.6857295632362366, 0.7513808012008667, 0.2543877959251404, -4.276399612426758, -0.95361328125, -0.413330078125, 0.036376953125, 0, 
119, 4271506007, 0.09909997880458832, 0.7420153021812439, -0.07312223315238953, 0.6589734554290771, 0.9999999403953552, 0.00006722565740346909, 0.00003804359585046768, -0.00032654590904712677, 0.08034920692443848, 0.0028641819953918457, -0.0060544610023498535, 9.642200469970703, 0.34699735045433044, -0.726200520992279, 0.9244561791419983, 0.5231579542160034, -4.490508556365967, -0.95361328125, -0.414306640625, 0.04052734375, 0, 
120, 4271514340, 0.09929656982421875, 0.7419291734695435, -0.07285016030073166, 0.6590708494186401, 0.9999999403953552, 0.000030008144676685333, 0.0001703975722193718, -0.00031357258558273315, 0.08171242475509644, 0.0034942626953125, -0.007016956806182861, 9.805893898010254, 0.42216259241104126, -0.8405271768569946, 0.4126581847667694, 2.343228816986084, -4.312106132507324, -0.95263671875, -0.411865234375, 0.036376953125, 0, 
121, 4271522673, 0.09948030114173889, 0.7417609095573425, -0.07247205078601837, 0.6592741012573242, 0.9999998807907104, -0.00009199976921081543, 0.0002763355150818825, -0.000310409814119339, 0.08267796039581299, 0.004627645015716553, -0.007424890995025635, 9.921823501586914, 0.5584600567817688, -0.8882660865783691, -1.2651382684707642, 3.8000380992889404, -4.268612384796143, -0.94921875, -0.412841796875, 0.034423828125, 0, 
122, 4271531006, 0.09990467131137848, 0.7415207624435425, -0.07239408791065216, 0.6594886183738708, 0.9999998807907104, -0.0002740491181612015, 0.00035590585321187973, -0.0002968795597553253, 0.08344727754592896, 0.0051996707916259766, -0.008120357990264893, 10.014237403869629, 0.6273157000541687, -0.9706418514251709, -3.768596649169922, 4.894252300262451, -4.082550048828125, -0.95068359375, -0.416259765625, 0.034912109375, 0, 
123, 4271539339, 0.10044816136360168, 0.7412074208259583, -0.07240648567676544, 0.6597570180892944, 0.9999997615814209, -0.0004505980759859085, 0.0004126308485865593, -0.000262649729847908, 0.08350467681884766, 0.005576431751251221, -0.009308338165283203, 10.021247863769531, 0.6723663210868835, -1.1125600337982178, -6.196417808532715, 5.674309730529785, -3.6118383407592773, -0.950439453125, -0.414794921875, 0.032958984375, 0, 
124, 4271547672, 0.10104649513959885, 0.740867018699646, -0.07259047776460648, 0.6600276827812195, 0.9999997019767761, -0.0005826875567436218, 0.00044983718544244766, -0.00020447559654712677, 0.08280593156814575, 0.006274223327636719, -0.010977685451507568, 9.937554359436035, 0.7557945251464844, -1.312361240386963, -8.012850761413574, 6.185953617095947, -2.811854124069214, -0.95068359375, -0.417236328125, 0.031982421875, 0, 
125, 4271556005, 0.10166611522436142, 0.7404840588569641, -0.07285244762897491, 0.6603331565856934, 0.9999996423721313, -0.0006619878113269806, 0.000467042438685894, -0.00011967681348323822, 0.08154529333114624, 0.006509125232696533, -0.012462913990020752, 9.786444664001465, 0.7833337187767029, -1.490409255027771, -9.103350639343262, 6.422552108764648, -1.6457403898239136, -0.947509765625, -0.417236328125, 0.030517578125, 0, 
126, 4271564338, 0.10226496309041977, 0.7401212453842163, -0.07325110584497452, 0.6606032848358154, 0.9999996423721313, -0.0007270798087120056, 0.00044261384755373, -0.00004424341022968292, 0.08073025941848755, 0.005627691745758057, -0.012177467346191406, 9.688624382019043, 0.6768167018890381, -1.456648826599121, -9.998465538024902, 6.086620807647705, -0.6084149479866028, -0.947998046875, -0.419189453125, 0.026611328125, 0, 
127, 4271572671, 0.10281501710414886, 0.7397410869598389, -0.07357599586248398, 0.6609076261520386, 0.9999996423721313, -0.000728195533156395, 0.0004563489928841591, -0.000016186386346817017, 0.08142024278640747, 0.004091322422027588, -0.01129227876663208, 9.77143383026123, 0.4921315610408783, -1.3502696752548218, -10.013809204101562, 6.275501251220703, -0.22258774936199188, -0.948486328125, -0.420166015625, 0.024169921875, 0, 
128, 4271581004, 0.1033303514122963, 0.7393561601638794, -0.07395888864994049, 0.6612153053283691, 0.9999996423721313, -0.0006546620279550552, 0.00048039015382528305, 0.000004961155354976654, 0.0806891918182373, 0.0026938915252685547, -0.011644363403320312, 9.683757781982422, 0.3241405189037323, -1.3925433158874512, -9.002610206604004, 6.606103420257568, 0.06822352111339569, -0.949951171875, -0.416748046875, 0.025634765625, 0, 
129, 4271589337, 0.10373519361019135, 0.7389841079711914, -0.07421040534973145, 0.6615394949913025, 0.9999997615814209, -0.0005415212363004684, 0.0004722634330391884, 0.000023159198462963104, 0.08038973808288574, 0.0019518136978149414, -0.012276411056518555, 9.647842407226562, 0.23478971421718597, -1.468637466430664, -7.446749687194824, 6.494348049163818, 0.31847453117370605, -0.949462890625, -0.419677734375, 0.024169921875, 0, 
130, 4271597670, 0.10404445976018906, 0.7386204600334167, -0.07445796579122543, 0.6618692278862, 0.9999998211860657, -0.0004093293100595474, 0.000481179915368557, 0.000041981227695941925, 0.0807226300239563, 0.0018979310989379883, -0.013384997844696045, 9.687857627868652, 0.2280026227235794, -1.601668357849121, -5.628908157348633, 6.616964340209961, 0.5773065090179443, -0.948974609375, -0.419677734375, 0.019775390625, 0, 
131, 4271606003, 0.10436675697565079, 0.7382379770278931, -0.07471919059753418, 0.6622156500816345, 0.9999998211860657, -0.0003456268459558487, 0.0005049137398600578, 0.00006702076643705368, 0.08101683855056763, 0.002216160297393799, -0.01271820068359375, 9.723215103149414, 0.2658225893974304, -1.5211313962936401, -4.752900123596191, 6.943339824676514, 0.921638548374176, -0.947998046875, -0.418701171875, 0.023681640625, 0, 
132, 4271614336, 0.1045648530125618, 0.737890899181366, -0.07489030808210373, 0.6625519394874573, 0.9999998211860657, -0.00027437880635261536, 0.0004747183993458748, 0.0000585680827498436, 0.0815473198890686, 0.0033738017082214355, -0.012597441673278809, 9.786794662475586, 0.4047166705131531, -1.5070911645889282, -3.773130178451538, 6.5281081199646, 0.8054012060165405, -0.946533203125, -0.421142578125, 0.022705078125, 0, 
133, 4271622669, 0.10476639121770859, 0.7375402450561523, -0.07504300028085709, 0.6628929972648621, 0.9999998211860657, -0.00026466697454452515, 0.0004883864894509315, 0.00006553065031766891, 0.08225852251052856, 0.00413280725479126, -0.012359559535980225, 9.872136116027832, 0.4957139790058136, -1.478488802909851, -3.6395785808563232, 6.716066837310791, 0.9011474251747131, -0.950927734375, -0.419921875, 0.020263671875, 0, 
134, 4271631002, 0.10494937747716904, 0.7371892929077148, -0.07523368299007416, 0.6632329225540161, 0.9999998211860657, -0.00027662888169288635, 0.00047682318836450577, 0.00008382927626371384, 0.08214575052261353, 0.004996120929718018, -0.012115180492401123, 9.858597755432129, 0.5991517305374146, -1.4492151737213135, -3.8040730953216553, 6.557053089141846, 1.15278160572052, -0.953369140625, -0.4208984375, 0.019775390625, 0, 
135, 4271639335, 0.10509461909532547, 0.73686283826828, -0.07542401552200317, 0.6635507941246033, 0.9999998211860657, -0.00031233951449394226, 0.00045253243297338486, 0.00013018306344747543, 0.08258241415023804, 0.00600963830947876, -0.011890113353729248, 9.911044120788574, 0.7203173041343689, -1.4220346212387085, -4.295148849487305, 6.223017692565918, 1.7902175188064575, -0.952392578125, -0.41845703125, 0.020751953125, 0, 
136, 4271647668, 0.10525206476449966, 0.7365057468414307, -0.07576165348291397, 0.6638838052749634, 0.9999998211860657, -0.0003568548709154129, 0.0004582861438393593, 0.00020883698016405106, 0.08239555358886719, 0.0069106221199035645, -0.011771798133850098, 9.888696670532227, 0.8277201652526855, -1.4077632427215576, -4.907303333282471, 6.302138328552246, 2.8718295097351074, -0.953369140625, -0.42138671875, 0.012939453125, 0, 
137, 4271656001, 0.10520539432764053, 0.7361608147621155, -0.07596792280673981, 0.6642499566078186, 0.9999997615814209, -0.0004342123866081238, 0.00047799013555049896, 0.000301433727145195, 0.08243703842163086, 0.007675826549530029, -0.011541485786437988, 9.893776893615723, 0.9187602996826172, -1.3799177408218384, -5.97108793258667, 6.573099613189697, 4.145177364349365, -0.950439453125, -0.4208984375, 0.018310546875, 0, 
138, 4271664334, 0.10542437434196472, 0.7357329726219177, -0.07659761607646942, 0.6646169424057007, 0.9999996423721313, -0.0006014741957187653, 0.0005042878910899162, 0.0003919089213013649, 0.08268225193023682, 0.008250236511230469, -0.01073920726776123, 9.923310279846191, 0.9869322180747986, -1.2831196784973145, -8.271197319030762, 6.934735298156738, 5.3893513679504395, -0.951416015625, -0.42041015625, 0.012939453125, 0, 
139, 4271672667, 0.10572993010282516, 0.735285222530365, -0.07734666019678116, 0.6649770736694336, 0.9999994039535522, -0.0008322764188051224, 0.0005311118438839912, 0.0004565799608826637, 0.08275622129440308, 0.008072972297668457, -0.0104636549949646, 9.932259559631348, 0.9652778506278992, -1.2495633363723755, -11.445084571838379, 7.3036065101623535, 6.278678894042969, -0.951416015625, -0.41748046875, 0.013916015625, 0, 
140, 4271681000, 0.10620090365409851, 0.7347412109375, -0.07836659252643585, 0.6653838157653809, 0.9999991059303284, -0.0010561943054199219, 0.0005890773609280586, 0.0005246223881840706, 0.0828818678855896, 0.007466614246368408, -0.010446429252624512, 9.947421073913574, 0.8921533823013306, -1.2468537092208862, -14.524301528930664, 8.100722312927246, 7.214367866516113, -0.952880859375, -0.41748046875, 0.010986328125, 0, 
141, 4271689333, 0.10666781663894653, 0.7341532111167908, -0.07935928553342819, 0.6658403277397156, 0.9999988079071045, -0.0012684687972068787, 0.00067878607660532, 0.000569942407310009, 0.08265668153762817, 0.006945252418518066, -0.010363876819610596, 9.920510292053223, 0.8294022083282471, -1.2359600067138672, -17.443403244018555, 9.334356307983398, 7.837587356567383, -0.953369140625, -0.41650390625, 0.010498046875, 0, 
142, 4271697666, 0.10737934708595276, 0.7334496974945068, -0.08066225051879883, 0.6663444638252258, 0.9999985098838806, -0.0014312714338302612, 0.0007558120414614677, 0.0005953377112746239, 0.08227187395095825, 0.00576096773147583, -0.010072171688079834, 9.874343872070312, 0.6871829032897949, -1.2002419233322144, -19.682193756103516, 10.393583297729492, 8.186813354492188, -0.9560546875, -0.41796875, 0.007568359375, 0, 
143, 4271705999, 0.10809820145368576, 0.732721209526062, -0.08190925419330597, 0.666877269744873, 0.9999982714653015, -0.0015391148626804352, 0.0008302265778183937, 0.0006040306761860847, 0.08191198110580444, 0.004738211631774902, -0.009585201740264893, 9.831127166748047, 0.5644305348396301, -1.14122474193573, -21.165206909179688, 11.416898727416992, 8.306355476379395, -0.95458984375, -0.4169921875, 0.001220703125, 0, 
144, 4271714332, 0.1089426726102829, 0.7318758368492126, -0.08334335684776306, 0.6674903035163879, 0.9999980330467224, -0.0016233231872320175, 0.0009268363937735558, 0.0006263004615902901, 0.08179765939712524, 0.004034221172332764, -0.008601963520050049, 9.817362785339355, 0.4796622395515442, -1.022425889968872, -22.323205947875977, 12.745433807373047, 8.61259937286377, -0.95703125, -0.41796875, -0.000244140625, 0, 
145, 4271722665, 0.10984478890895844, 0.7309771776199341, -0.08480625599622726, 0.6681427359580994, 0.9999977946281433, -0.0017138216644525528, 0.0010320553556084633, 0.000658116303384304, 0.08126074075698853, 0.003786027431488037, -0.006734251976013184, 9.752809524536133, 0.4492965340614319, -0.7972896695137024, -23.56769561767578, 14.192357063293457, 9.050115585327148, -0.95556640625, -0.41357421875, -0.002685546875, 0, 
146, 4271730998, 0.11078400164842606, 0.72996985912323, -0.08639941364526749, 0.6688843965530396, 0.9999974966049194, -0.0018063411116600037, 0.0011195903643965721, 0.0007070815190672874, 0.08116453886032104, 0.0034962892532348633, -0.005907952785491943, 9.741215705871582, 0.413968026638031, -0.6973450779914856, -24.839988708496094, 15.396101951599121, 9.723465919494629, -0.9580078125, -0.4140625, -0.005615234375, 0, 
147, 4271739331, 0.11185756325721741, 0.7289000153541565, -0.08813311904668808, 0.6696455478668213, 0.9999971985816956, -0.0018954817205667496, 0.0012165335938334465, 0.0007557598873972893, 0.08065426349639893, 0.0029868483543395996, -0.004725098609924316, 9.679849624633789, 0.3522002696990967, -0.5546090006828308, -26.065813064575195, 16.729225158691406, 10.392870903015137, -0.95947265625, -0.414794921875, -0.008544921875, 0, 
148, 4271747664, 0.11288391798734665, 0.727749228477478, -0.08990959823131561, 0.6704882979393005, 0.9999968409538269, -0.00199994258582592, 0.001276557333767414, 0.0008065355941653252, 0.08047991991043091, 0.002771735191345215, -0.004376828670501709, 9.658906936645508, 0.32586416602134705, -0.5122330188751221, -27.502309799194336, 17.554641723632812, 11.09111499786377, -0.95947265625, -0.415283203125, -0.013427734375, 0, 
149, 4271755997, 0.11388278007507324, 0.7265940308570862, -0.0916568860411644, 0.6713353395462036, 0.999996542930603, -0.002103518694639206, 0.001312783919274807, 0.0008499650284647942, 0.08002549409866333, 0.0023757219314575195, -0.0032144784927368164, 9.604185104370117, 0.2777227461338043, -0.37252435088157654, -28.926651000976562, 18.05281639099121, 11.688339233398438, -0.961181640625, -0.413330078125, -0.019775390625, 0, 
150, 4271764330, 0.11504381895065308, 0.7253842353820801, -0.09366736561059952, 0.6721677780151367, 0.9999961853027344, -0.002262767404317856, 0.001294451765716076, 0.0008905148133635521, 0.07944673299789429, 0.0021558403968811035, -0.002428710460662842, 9.534588813781738, 0.2508593201637268, -0.27851736545562744, -31.11656951904297, 17.800724029541016, 12.24596118927002, -0.962646484375, -0.414306640625, -0.025146484375, 0, 
151, 4271772663, 0.1163259893655777, 0.7242449522018433, -0.0957707092165947, 0.672878623008728, 0.9999958276748657, -0.0024677254259586334, 0.0011868206784129143, 0.0008912598714232445, 0.07941311597824097, 0.0029577016830444336, -0.0022094249725341797, 9.530577659606934, 0.3470960259437561, -0.25297248363494873, -33.93506622314453, 16.320632934570312, 12.256211280822754, -0.965087890625, -0.411376953125, -0.030517578125, 0, 
152, 4271780996, 0.11779621243476868, 0.7231040000915527, -0.09808634221553802, 0.6735161542892456, 0.9999953508377075, -0.0027033593505620956, 0.0011009788140654564, 0.0008748592808842659, 0.08004480600357056, 0.004578292369842529, -0.0020845532417297363, 9.606511116027832, 0.5416678786277771, -0.2380857765674591, -37.1754035949707, 15.140174865722656, 12.030678749084473, -0.964599609375, -0.411376953125, -0.032470703125, 0, 
153, 4271789329, 0.11946741491556168, 0.7219700217247009, -0.10052552819252014, 0.6740783452987671, 0.9999946355819702, -0.002982204779982567, 0.0010671885684132576, 0.0008515967056155205, 0.0797278881072998, 0.005503594875335693, -0.002458810806274414, 9.568598747253418, 0.6531766653060913, -0.2828947603702545, -41.00996780395508, 14.675508499145508, 11.710783958435059, -0.9638671875, -0.409912109375, -0.035888671875, 0, 
154, 4271797662, 0.12133561819791794, 0.7208147644996643, -0.10314417630434036, 0.6745851635932922, 0.9999939799308777, -0.0032099448144435883, 0.0010196780785918236, 0.0008117305114865303, 0.078937828540802, 0.006503403186798096, -0.0027084946632385254, 9.473876953125, 0.7737758755683899, -0.31286653876304626, -44.14176940917969, 14.022170066833496, 11.162565231323242, -0.96484375, -0.4111328125, -0.0400390625, 0, 
155, 4271805995, 0.12332120537757874, 0.7197149395942688, -0.10578088462352753, 0.6749911904335022, 0.9999935626983643, -0.0033870097249746323, 0.0009320890530943871, 0.0007641306146979332, 0.07888293266296387, 0.007357895374298096, -0.002695024013519287, 9.467301368713379, 0.8768261671066284, -0.3115995228290558, -46.576690673828125, 12.817684173583984, 10.5079927444458, -0.96435546875, -0.4111328125, -0.04443359375, 0, 
156, 4271814328, 0.125493586063385, 0.7186108231544495, -0.10860719531774521, 0.6753182411193848, 0.9999929666519165, -0.003581758588552475, 0.0008620982989668846, 0.0007287627086043358, 0.0787084698677063, 0.00786203145980835, -0.0014914274215698242, 9.446231842041016, 0.9372280836105347, -0.1674690842628479, -49.25480651855469, 11.855206489562988, 10.021632194519043, -0.96630859375, -0.4111328125, -0.05078125, 0, 
157, 4271822661, 0.12775492668151855, 0.7175096273422241, -0.11145275086164474, 0.6756011843681335, 0.9999923706054688, -0.003753324970602989, 0.0008427826687693596, 0.000720134936273098, 0.07852137088775635, 0.0084877610206604, -0.0008605718612670898, 9.42375659942627, 1.0121585130691528, -0.09151434153318405, -51.614112854003906, 11.58958625793457, 9.902987480163574, -0.96923828125, -0.40673828125, -0.0556640625, 0, 
158, 4271830994, 0.13017186522483826, 0.7163515090942383, -0.11449279636144638, 0.6758604049682617, 0.9999917149543762, -0.003916389308869839, 0.0008495673537254333, 0.0007144398987293243, 0.0785943865776062, 0.008543133735656738, -0.0010752081871032715, 9.432540893554688, 1.018968105316162, -0.11701023578643799, -53.85652160644531, 11.682888984680176, 9.82467269897461, -0.9716796875, -0.40966796875, -0.05908203125, 0, 
159, 4271839327, 0.13261568546295166, 0.7151380181312561, -0.11755618453025818, 0.6761444211006165, 0.999991238117218, -0.0040127988904714584, 0.0009062765166163445, 0.0007726410403847694, 0.0788317322731018, 0.009223580360412598, -0.002637207508087158, 9.461321830749512, 1.1008155345916748, -0.3034679889678955, -55.182315826416016, 12.462732315063477, 10.625033378601074, -0.972412109375, -0.40771484375, -0.06787109375, 0, 
160, 4271847660, 0.13513244688510895, 0.7138470411300659, -0.12079404294490814, 0.6764395236968994, 0.999990701675415, -0.004135048016905785, 0.0009506316855549812, 0.0008087130263447762, 0.07917100191116333, 0.009791672229766846, -0.004015684127807617, 9.502302169799805, 1.1693371534347534, -0.468018114566803, -56.86344528198242, 13.072688102722168, 11.121082305908203, -0.969970703125, -0.4072265625, -0.07373046875, 0, 
161, 4271855993, 0.137738898396492, 0.712522029876709, -0.1241011992096901, 0.6767122149467468, 0.9999898672103882, -0.004317661747336388, 0.0009550787508487701, 0.0008582808077335358, 0.07982200384140015, 0.010578274726867676, -0.00520479679107666, 9.580702781677246, 1.2638963460922241, -0.6099749207496643, -59.374691009521484, 13.133846282958984, 11.802721977233887, -0.96826171875, -0.404296875, -0.07958984375, 0, 
162, 4271864326, 0.1404830515384674, 0.7111465334892273, -0.12767677009105682, 0.6769298315048218, 0.999988853931427, -0.00454679224640131, 0.000934109091758728, 0.0008954368531703949, 0.08065122365951538, 0.011342108249664307, -0.005455672740936279, 9.680357933044434, 1.3553929328918457, -0.6394826769828796, -62.52562713623047, 12.845486640930176, 12.313681602478027, -0.97265625, -0.405517578125, -0.08642578125, 0, 
163, 4271872659, 0.14338193833827972, 0.7097353339195251, -0.13135196268558502, 0.6770999431610107, 0.9999877214431763, -0.004772325977683067, 0.0009273141622543335, 0.0009293090552091599, 0.08144325017929077, 0.0121651291847229, -0.00640791654586792, 9.775642395019531, 1.454435110092163, -0.7529591917991638, -65.6270980834961, 12.75204849243164, 12.779481887817383, -0.9775390625, -0.406982421875, -0.0908203125, 0, 
164, 4271880992, 0.14640402793884277, 0.7082487940788269, -0.13526411354541779, 0.6772395968437195, 0.9999865889549255, -0.004998086020350456, 0.0009419182315468788, 0.0009499276056885719, 0.08167409896850586, 0.01357877254486084, -0.0055275559425354, 9.803448677062988, 1.6234952211380005, -0.6459711790084839, -68.73167419433594, 12.952879905700684, 13.06302261352539, -0.9736328125, -0.402587890625, -0.09814453125, 0, 
165, 4271889325, 0.14964693784713745, 0.7067446708679199, -0.13926133513450623, 0.6772918105125427, 0.9999850988388062, -0.005297556519508362, 0.0009078430011868477, 0.0009351791813969612, 0.08179545402526855, 0.015116453170776367, -0.004874289035797119, 9.818066596984863, 1.8079304695129395, -0.5664207339286804, -72.84990692138672, 12.484299659729004, 12.860215187072754, -0.974365234375, -0.401611328125, -0.10400390625, 0, 
166, 4271897658, 0.1530778706073761, 0.7051960229873657, -0.1435345709323883, 0.6772472262382507, 0.9999837279319763, -0.0055663492530584335, 0.0008559422567486763, 0.0009097354486584663, 0.08248406648635864, 0.016093730926513672, -0.0052141547203063965, 9.90077018737793, 1.9257668256759644, -0.6065104007720947, -76.54625701904297, 11.770584106445312, 12.51032829284668, -0.982666015625, -0.39892578125, -0.1142578125, 0, 
167, 4271905991, 0.1566855013370514, 0.7036367058753967, -0.14786316454410553, 0.6771126985549927, 0.9999824166297913, -0.005798660218715668, 0.0008166534826159477, 0.0009193578734993935, 0.08334475755691528, 0.01679050922393799, -0.006394743919372559, 10.004242897033691, 2.0101566314697266, -0.747556209564209, -79.740966796875, 11.230307579040527, 12.642659187316895, -0.974853515625, -0.400146484375, -0.117431640625, 0, 
168, 4271914324, 0.160401850938797, 0.7019700407981873, -0.15244609117507935, 0.6769561767578125, 0.9999811053276062, -0.006011815741658211, 0.0008501121774315834, 0.0009348457679152489, 0.08430898189544678, 0.01679408550262451, -0.007546722888946533, 10.120129585266113, 2.0113158226013184, -0.8849377632141113, -82.6722183227539, 11.690421104431152, 12.855646133422852, -0.978515625, -0.40087890625, -0.126220703125, 0, 
169, 4271922657, 0.1643480807542801, 0.7002335786819458, -0.15706118941307068, 0.6767529249191284, 0.9999794363975525, -0.006280001252889633, 0.0008958177641034126, 0.000928717665374279, 0.08418440818786621, 0.01573866605758667, -0.007374286651611328, 10.105072021484375, 1.884846806526184, -0.8640487194061279, -86.3602523803711, 12.318954467773438, 12.771381378173828, -0.978515625, -0.396484375, -0.132568359375, 0, 
170, 4271930990, 0.16849155724048615, 0.6984014511108398, -0.16196702420711517, 0.6764710545539856, 0.9999775886535645, -0.006576220504939556, 0.0008873865008354187, 0.0008775219321250916, 0.0840495228767395, 0.01468592882156372, -0.006083190441131592, 10.088532447814941, 1.758286714553833, -0.7094849944114685, -90.4338150024414, 12.203019142150879, 12.067363739013672, -0.98095703125, -0.3974609375, -0.140869140625, 0, 
171, 4271939323, 0.17291194200515747, 0.6965425610542297, -0.1668599545955658, 0.6760826706886292, 0.9999759197235107, -0.006834844127297401, 0.0008839676156640053, 0.0008111940696835518, 0.08397501707077026, 0.013905942440032959, -0.0059021711349487305, 10.079378128051758, 1.6653985977172852, -0.6879792213439941, -93.99038696289062, 12.156013488769531, 11.155256271362305, -0.981689453125, -0.39111328125, -0.149169921875, 0, 
172, 4271947656, 0.17740729451179504, 0.6946094036102295, -0.1718933880329132, 0.6756457686424255, 0.9999752044677734, -0.006950832903385162, 0.0008827438578009605, 0.0007189614698290825, 0.08380579948425293, 0.012769997119903564, -0.007303357124328613, 10.058968544006348, 1.5312758684158325, -0.856905996799469, -95.58541870117188, 12.13918399810791, 9.886906623840332, -0.981689453125, -0.394775390625, -0.156982421875, 0, 
173, 4271955989, 0.18205459415912628, 0.692711591720581, -0.17679336667060852, 0.6750933527946472, 0.9999749064445496, -0.0070043690502643585, 0.0008360957726836205, 0.0006568124517798424, 0.08464950323104858, 0.012291312217712402, -0.008194029331207275, 10.160133361816406, 1.47518789768219, -0.9644984602928162, -96.3216552734375, 11.497699737548828, 9.032257080078125, -0.981689453125, -0.394775390625, -0.168212890625, 0, 
174, 4271964322, 0.18663877248764038, 0.6908091306686401, -0.18177464604377747, 0.6744678020477295, 0.9999750256538391, -0.007004698738455772, 0.0007550632581114769, 0.0005839085206389427, 0.08487045764923096, 0.011254668235778809, -0.009741783142089844, 10.186528205871582, 1.3528157472610474, -1.1519033908843994, -96.326171875, 10.383366584777832, 8.029706001281738, -0.97998046875, -0.392333984375, -0.171630859375, 0, 
175, 4271972655, 0.19134581089019775, 0.6889791488647461, -0.18657445907592773, 0.6737096905708313, 0.999975323677063, -0.006973667070269585, 0.0006829584017395973, 0.0005105296149849892, 0.08550184965133667, 0.010794520378112793, -0.010196030139923096, 10.262125015258789, 1.2986506223678589, -1.2075250148773193, -95.8994369506836, 9.391805648803711, 7.020625591278076, -0.98291015625, -0.392333984375, -0.179443359375, 0, 
176, 4271980988, 0.1959412693977356, 0.687107264995575, -0.1913832426071167, 0.6729511618614197, 0.9999758005142212, -0.006915047764778137, 0.0006763329729437828, 0.00042738113552331924, 0.08598613739013672, 0.009644925594329834, -0.01050955057144165, 10.320094108581543, 1.1617140769958496, -1.2462034225463867, -95.09329986572266, 9.300692558288574, 5.877194881439209, -0.980224609375, -0.387939453125, -0.18798828125, 0, 
177, 4271989321, 0.20050561428070068, 0.6852748990058899, -0.19590482115745544, 0.6721735596656799, 0.9999772906303406, -0.0066924989223480225, 0.000706755556166172, 0.0004236707463860512, 0.0880131721496582, 0.006461977958679199, -0.01423192024230957, 10.563535690307617, 0.7823966145515442, -1.6952252388000488, -92.0328369140625, 9.719048500061035, 5.826167583465576, -0.982177734375, -0.389404296875, -0.19970703125, 0, 
178, 4271997654, 0.20478543639183044, 0.6833387613296509, -0.2004004269838333, 0.6715288162231445, 0.9999786019325256, -0.006478549912571907, 0.0007974738255143166, 0.00046057719737291336, 0.08696246147155762, 0.006361722946166992, -0.01032114028930664, 10.437248229980469, 0.7666265368461609, -1.2253087759017944, -89.09066772460938, 10.966569900512695, 6.333690643310547, -0.982666015625, -0.386962890625, -0.2041015625, 0, 
179, 4272005987, 0.2091684639453888, 0.6813823580741882, -0.20479562878608704, 0.6708395481109619, 0.9999784231185913, -0.006491607055068016, 0.0008532581850886345, 0.0005081640556454659, 0.08633774518966675, 0.006645560264587402, -0.008477449417114258, 10.362212181091309, 0.7988075613975525, -1.003314733505249, -89.27021789550781, 11.733695983886719, 6.9880876541137695, -0.98291015625, -0.3828125, -0.21142578125, 0, 
180, 4272014320, 0.21324032545089722, 0.6792591214179993, -0.2092040628194809, 0.6703503131866455, 0.999979555606842, -0.00628550723195076, 0.0010036332532763481, 0.0006117848679423332, 0.08666813373565674, 0.005401670932769775, -0.008265912532806396, 10.401978492736816, 0.6480677127838135, -0.9774363040924072, -86.43597412109375, 13.801594734191895, 8.413040161132812, -0.9814453125, -0.38330078125, -0.2216796875, 0, 
181, 4272022653, 0.21725450456142426, 0.6770867109298706, -0.21334676444530487, 0.6699534058570862, 0.9999806880950928, -0.006056908518075943, 0.00118271354585886, 0.0006947377696633339, 0.08567315340042114, 0.004297018051147461, -0.00631028413772583, 10.282435417175293, 0.5130758881568909, -0.7419872879981995, -83.2923355102539, 16.264232635498047, 9.553773880004883, -0.98486328125, -0.38232421875, -0.22900390625, 0, 
182, 4272030986, 0.2210751622915268, 0.6747416257858276, -0.21751220524311066, 0.6697299480438232, 0.999981164932251, -0.005944025702774525, 0.0013311412185430527, 0.000720050185918808, 0.0842025876045227, 0.0027475357055664062, -0.005258917808532715, 10.105785369873047, 0.32616323232650757, -0.6156957745552063, -81.74000549316406, 18.30535125732422, 9.90185832977295, -0.984619140625, -0.37841796875, -0.2373046875, 0, 
183, 4272039319, 0.2250051647424698, 0.6724561452865601, -0.22144195437431335, 0.6694318652153015, 0.999981701374054, -0.005861537531018257, 0.0013596666976809502, 0.0006549423560500145, 0.08186638355255127, 0.0032382607460021973, -0.0040169358253479, 9.825262069702148, 0.38496777415275574, -0.46642595529556274, -80.60564422607422, 18.697622299194336, 9.006519317626953, -0.985107421875, -0.3779296875, -0.2431640625, 0, 
184, 4272047652, 0.22884581983089447, 0.6701857447624207, -0.22535181045532227, 0.6691019535064697, 0.9999822974205017, -0.005793251097202301, 0.001270298846065998, 0.000494672916829586, 0.08047401905059814, 0.004262149333953857, -0.004273891448974609, 9.65816593170166, 0.5096439719200134, -0.4976661801338196, -79.66657257080078, 17.468664169311523, 6.802553176879883, -0.984130859375, -0.37646484375, -0.250732421875, 0, 
185, 4272055985, 0.23282594978809357, 0.6681010723114014, -0.22898811101913452, 0.6685788035392761, 0.999983012676239, -0.005704114213585854, 0.0011544125154614449, 0.0003279028460383415, 0.0800284743309021, 0.004492700099945068, -0.004099071025848389, 9.60453987121582, 0.5387756824493408, -0.47774738073349, -78.44078063964844, 15.875036239624023, 4.509193420410156, -0.98486328125, -0.3740234375, -0.258056640625, 0, 
186, 4272064318, 0.2367665320634842, 0.6660054922103882, -0.2326458841562271, 0.668022632598877, 0.9999831318855286, -0.005702760070562363, 0.0010821716859936714, 0.00016806181520223618, 0.07881450653076172, 0.005297839641571045, -0.004417598247528076, 9.458794593811035, 0.6371728777885437, -0.5162749290466309, -78.42216491699219, 14.881609916687012, 2.3111214637756348, -0.98291015625, -0.37060546875, -0.266845703125, 0, 
187, 4272072651, 0.24087293446063995, 0.6640292406082153, -0.2361072599887848, 0.6673072576522827, 0.9999832510948181, -0.00569097138941288, 0.0010260837152600288, 0.000058523379266262054, 0.07912498712539673, 0.00628662109375, -0.005086839199066162, 9.49604320526123, 0.7573158144950867, -0.5964049100875854, -78.26004791259766, 14.110306739807129, 0.8047909140586853, -0.982177734375, -0.3681640625, -0.273681640625, 0, 
188, 4272080984, 0.24490267038345337, 0.6619457602500916, -0.23965367674827576, 0.6666459441184998, 0.9999831318855286, -0.005709521472454071, 0.001050577498972416, 0.00000742543488740921, 0.07909190654754639, 0.0070931315422058105, -0.005569279193878174, 9.492111206054688, 0.8549274206161499, -0.6534994840621948, -78.51512908935547, 14.447135925292969, 0.10211171954870224, -0.982177734375, -0.370361328125, -0.278076171875, 0, 
189, 4272089317, 0.24913430213928223, 0.6598896980285645, -0.24308426678180695, 0.6658738851547241, 0.9999826550483704, -0.005786917172372341, 0.0010827947407960892, -0.00003618467599153519, 0.07897192239761353, 0.007982909679412842, -0.004983007907867432, 9.477616310119629, 0.961760401725769, -0.5821727514266968, -79.5794677734375, 14.890175819396973, -0.49759775400161743, -0.984130859375, -0.367919921875, -0.284912109375, 0, 
190, 4272097650, 0.25333985686302185, 0.6576794981956482, -0.24667617678642273, 0.6651524901390076, 0.9999819397926331, -0.005902176722884178, 0.0011256532743573189, -0.0000629723072052002, 0.07920235395431519, 0.008633852005004883, -0.00478518009185791, 9.505237579345703, 1.0400599241256714, -0.5574158430099487, -81.16449737548828, 15.479557037353516, -0.8659713268280029, -0.9794921875, -0.367431640625, -0.292236328125, 0, 
191, 4272105983, 0.25776398181915283, 0.6554895639419556, -0.2502177357673645, 0.6642909049987793, 0.9999811053276062, -0.006043877452611923, 0.0011367639526724815, -0.00007462501525878906, 0.07900673151016235, 0.009051859378814697, -0.004888296127319336, 9.481765747070312, 1.0904840230941772, -0.5692703127861023, -83.11312103271484, 15.632349967956543, -1.0262150764465332, -0.97998046875, -0.363037109375, -0.299560546875, 0, 
192, 4272114316, 0.2620709240436554, 0.6532108187675476, -0.25387391448020935, 0.6634625792503357, 0.9999810457229614, -0.006055675446987152, 0.0011090105399489403, -0.00009775161743164062, 0.07924401760101318, 0.008722424507141113, -0.0050064921379089355, 9.510218620300293, 1.051266074180603, -0.5839093327522278, -83.27536010742188, 15.250696182250977, -1.3442434072494507, -0.98193359375, -0.361572265625, -0.309814453125, 0, 
193, 4272122649, 0.2665179371833801, 0.651041567325592, -0.25738590955734253, 0.6624693870544434, 0.9999810457229614, -0.006067842245101929, 0.001054772175848484, -0.00014048628509044647, 0.07889282703399658, 0.008007943630218506, -0.0037563443183898926, 9.467851638793945, 0.9650238752365112, -0.43495896458625793, -83.44268798828125, 14.50483226776123, -1.9319145679473877, -0.979736328125, -0.362060546875, -0.3125, 0, 
194, 4272130982, 0.27083081007003784, 0.6487820744514465, -0.26100295782089233, 0.6615211367607117, 0.9999811053276062, -0.006059302017092705, 0.0010288665071129799, -0.00016291625797748566, 0.080402672290802, 0.006729245185852051, -0.003953278064727783, 9.649057388305664, 0.8119571208953857, -0.459587037563324, -83.32524108886719, 14.14858627319336, -2.2403628826141357, -0.980712890625, -0.360595703125, -0.32666015625, 0, 
195, 4272139315, 0.2752453684806824, 0.6466301679611206, -0.2644016146659851, 0.6604554057121277, 0.9999815225601196, -0.005986584350466728, 0.0010222429409623146, -0.00020921975374221802, 0.0808405876159668, 0.005037844181060791, -0.004869222640991211, 9.701723098754883, 0.6100659370422363, -0.5707834362983704, -82.32524108886719, 14.057498931884766, -2.8771109580993652, -0.979736328125, -0.360595703125, -0.3291015625, 0, 
196, 4272147648, 0.279520183801651, 0.6443846821784973, -0.26783648133277893, 0.6594699025154114, 0.9999818801879883, -0.005920439958572388, 0.0010344898328185081, -0.00026875734329223633, 0.08039051294326782, 0.004577815532684326, -0.0046721696853637695, 9.647674560546875, 0.555243730545044, -0.5474435687065125, -81.41564178466797, 14.225912094116211, -3.6958491802215576, -0.97607421875, -0.357666015625, -0.337890625, 0, 
197, 4272155981, 0.2839494049549103, 0.6422580480575562, -0.2710759937763214, 0.6583276987075806, 0.9999819993972778, -0.005905056372284889, 0.0010086866095662117, -0.00034632720053195953, 0.07952898740768433, 0.002661585807800293, -0.007095158100128174, 9.544604301452637, 0.32771214842796326, -0.8399251699447632, -81.20409393310547, 13.871076583862305, -4.7625603675842285, -0.9765625, -0.357177734375, -0.34716796875, 0, 
198, 4272164314, 0.28820252418518066, 0.6400651335716248, -0.274324893951416, 0.6572685837745667, 0.9999826550483704, -0.005789250135421753, 0.000998075120151043, -0.00040811486542224884, 0.07968407869338989, 0.002879798412322998, -0.0066991448402404785, 9.563127517700195, 0.35412707924842834, -0.7923640012741089, -79.6115493774414, 13.725147247314453, -5.612239360809326, -0.9736328125, -0.355224609375, -0.34912109375, 0, 
199, 4272172647, 0.29255443811416626, 0.6379791498184204, -0.277380108833313, 0.6560906767845154, 0.9999829530715942, -0.005733173340559006, 0.0009975014254450798, -0.0004347972571849823, 0.07917511463165283, 0.0019113421440124512, -0.006841778755187988, 9.502108573913574, 0.2381908893585205, -0.8102330565452576, -78.84040069580078, 13.717257499694824, -5.979165077209473, -0.973388671875, -0.354248046875, -0.359375, 0, 
200, 4272180980, 0.29668596386909485, 0.6357871890068054, -0.2805253565311432, 0.655025064945221, 0.9999834895133972, -0.005645234137773514, 0.0009889649227261543, -0.000395728275179863, 0.07961809635162354, 0.002285778522491455, -0.0060988664627075195, 9.555163383483887, 0.2821936309337616, -0.7208844423294067, -77.6310806274414, 13.599863052368164, -5.441901683807373, -0.973876953125, -0.351806640625, -0.36328125, 0, 
201, 4272189313, 0.30083146691322327, 0.6337181925773621, -0.28346535563468933, 0.6538724303245544, 0.9999842643737793, -0.005514958873391151, 0.0009874245151877403, -0.0003720112144947052, 0.07863003015518188, 0.0031968355178833008, -0.005723357200622559, 9.43651294708252, 0.3909134268760681, -0.6753826141357422, -75.83956146240234, 13.578676223754883, -5.115753173828125, -0.97021484375, -0.350341796875, -0.374267578125, 0, 
202, 4272197646, 0.30478233098983765, 0.6315605044364929, -0.2865120470523834, 0.6528016924858093, 0.999984622001648, -0.005457405000925064, 0.0009409422054886818, -0.00035042688250541687, 0.07823550701141357, 0.003821253776550293, -0.004665017127990723, 9.388998985290527, 0.46489226818084717, -0.5484780669212341, -75.048095703125, 12.939469337463379, -4.818933486938477, -0.9697265625, -0.346923828125, -0.377197265625, 0, 
203, 4272205979, 0.3087140619754791, 0.6295806765556335, -0.2894071042537689, 0.6515886187553406, 0.9999853372573853, -0.005341334268450737, 0.0008513582870364189, -0.00030595995485782623, 0.07744741439819336, 0.004491865634918213, -0.004098236560821533, 9.2943115234375, 0.5444981455802917, -0.4810037612915039, -73.45191955566406, 11.707542419433594, -4.207440376281738, -0.96923828125, -0.345947265625, -0.384033203125, 0, 
204, 4272214312, 0.31236356496810913, 0.6275878548622131, -0.2923871874809265, 0.6504403352737427, 0.9999862313270569, -0.005195848643779755, 0.0007175998762249947, -0.00026638247072696686, 0.07698482275009155, 0.003863394260406494, -0.004208922386169434, 9.238783836364746, 0.4686981439590454, -0.4960387945175171, -71.45123291015625, 9.868147850036621, -3.6631853580474854, -0.9716796875, -0.3466796875, -0.388916015625, 0, 
205, 4272222645, 0.3160233199596405, 0.6258042454719543, -0.2952558696269989, 0.6490936279296875, 0.9999866485595703, -0.0051317159086465836, 0.0005746735259890556, -0.0002435334026813507, 0.0763898491859436, 0.004450321197509766, -0.0026506781578063965, 9.167198181152344, 0.5379123687744141, -0.31007614731788635, -70.56930541992188, 7.902679920196533, -3.3489737510681152, -0.971435546875, -0.34375, -0.394775390625, 0, 
206, 4272230978, 0.3194546401500702, 0.6240185499191284, -0.29822787642478943, 0.647773027420044, 0.9999871850013733, -0.005039572715759277, 0.0004129214212298393, -0.00024392642080783844, 0.07637882232666016, 0.003741741180419922, -0.004731595516204834, 9.165948867797852, 0.4541146457195282, -0.5617572069168091, -69.30216979980469, 5.678328514099121, -3.3543777465820312, -0.971435546875, -0.3427734375, -0.401123046875, 0, 
207, 4272239311, 0.32288917899131775, 0.6224363446235657, -0.301040917634964, 0.646289587020874, 0.999987781047821, -0.0049318186938762665, 0.0003146594390273094, -0.00023491866886615753, 0.0773894190788269, 0.004601776599884033, -0.0054756999015808105, 9.287176132202148, 0.5576462745666504, -0.6514576077461243, -67.82036590576172, 4.32706880569458, -3.230506181716919, -0.967041015625, -0.337890625, -0.404052734375, 0, 
208, 4272247644, 0.32618069648742676, 0.6207432746887207, -0.3039952516555786, 0.6448807716369629, 0.999987781047821, -0.004937777295708656, 0.0002612406387925148, -0.00021953321993350983, 0.07881653308868408, 0.004656314849853516, -0.006676912307739258, 9.458447456359863, 0.5648041367530823, -0.7960213422775269, -67.90231323242188, 3.592475414276123, -3.018932342529297, -0.966552734375, -0.33544921875, -0.407470703125, 0, 
209, 4272255977, 0.3295898139476776, 0.6191666722297668, -0.30686506628990173, 0.643301784992218, 0.9999875426292419, -0.004980139434337616, 0.00023299362510442734, -0.00021559372544288635, 0.07969111204147339, 0.004973173141479492, -0.007338404655456543, 9.563392639160156, 0.6032467484474182, -0.8754301071166992, -68.48486328125, 3.204033851623535, -2.9647576808929443, -0.9677734375, -0.33642578125, -0.413330078125, 0, 
210, 4272264310, 0.3329368829727173, 0.6174294948577881, -0.3098766803741455, 0.6418025493621826, 0.9999871850013733, -0.005051257088780403, 0.00023139175027608871, -0.00023502670228481293, 0.08028984069824219, 0.005362570285797119, -0.008104264736175537, 9.635238647460938, 0.6507036685943604, -0.967056930065155, -69.46284484863281, 3.1820056438446045, -3.23199200630188, -0.9677734375, -0.3349609375, -0.418212890625, 0, 
211, 4272272643, 0.3364558517932892, 0.6158223152160645, -0.3127918541431427, 0.6400949954986572, 0.9999867677688599, -0.005127539858222008, 0.0002021072432398796, -0.0002903249114751816, 0.08082902431488037, 0.005198240280151367, -0.007700741291046143, 9.699874877929688, 0.6313561201095581, -0.9189563393592834, -70.51187133789062, 2.7792975902557373, -3.992431402206421, -0.96630859375, -0.33740234375, -0.421142578125, 0, 
212, 4272280976, 0.33992093801498413, 0.6140885949134827, -0.31577447056770325, 0.6384632587432861, 0.9999866485595703, -0.005145624279975891, 0.00019350554794073105, -0.0003730040043592453, 0.08083295822143555, 0.005317270755767822, -0.007352650165557861, 9.700274467468262, 0.6462444067001343, -0.8771808743476868, -70.76055908203125, 2.661010503768921, -5.129400730133057, -0.96875, -0.32958984375, -0.427734375, 0, 
213, 4272289309, 0.3434527516365051, 0.6125544905662537, -0.3185775578022003, 0.6366519331932068, 0.9999870657920837, -0.005072150379419327, 0.0001445850357413292, -0.00042406655848026276, 0.0792284607887268, 0.006483554840087891, -0.006858170032501221, 9.507583618164062, 0.7862551212310791, -0.8176780939102173, -69.75016784667969, 1.988275170326233, -5.831592082977295, -0.965576171875, -0.32763671875, -0.43359375, 0, 
214, 4272297642, 0.34674274921417236, 0.6109463572502136, -0.3213682174682617, 0.635009229183197, 0.9999880194664001, -0.004876524209976196, 0.0001161796972155571, -0.0004217047244310379, 0.0778929591178894, 0.008111894130706787, -0.006371676921844482, 9.347206115722656, 0.9811237454414368, -0.7587887048721313, -67.05997467041016, 1.597656011581421, -5.799111843109131, -0.967041015625, -0.3232421875, -0.4375, 0, 
215, 4272305975, 0.3499772250652313, 0.6094695925712585, -0.3240075707435608, 0.6333104372024536, 0.9999887347221375, -0.004730995744466782, 0.00014816690236330032, -0.00031230412423610687, 0.0772099494934082, 0.010127723217010498, -0.0054604411125183105, 9.265281677246094, 1.2213577032089233, -0.6481472253799438, -65.0587158203125, 2.0375304222106934, -4.294678688049316, -0.963623046875, -0.3271484375, -0.44140625, 0, 
216, 4272314308, 0.3529740571975708, 0.6077662110328674, -0.32681673765182495, 0.6318390369415283, 0.9999889731407166, -0.004687201231718063, 0.00017951149493455887, -0.00013301707804203033, 0.07611232995986938, 0.010902225971221924, -0.004716217517852783, 9.133770942687988, 1.3121755123138428, -0.5581891536712646, -64.45645141601562, 2.4685678482055664, -1.8291959762573242, -0.963134765625, -0.32177734375, -0.4423828125, 0, 
217, 4272322641, 0.35598689317703247, 0.6061305999755859, -0.3296487629413605, 0.6302466988563538, 0.9999887347221375, -0.004739901050925255, 0.00018199626356363297, 0.00004047062247991562, 0.07558375597000122, 0.010884761810302734, -0.0038533806800842285, 9.070549964904785, 1.3080360889434814, -0.45457935333251953, -65.1811752319336, 2.5027379989624023, 0.5565353631973267, -0.96337890625, -0.322265625, -0.45068359375, 0, 
218, 4272330974, 0.35883793234825134, 0.6042829751968384, -0.33274945616722107, 0.6287729144096375, 0.999988317489624, -0.004834659397602081, 0.00011764746159315109, 0.00018317345529794693, 0.07569420337677002, 0.0085984468460083, -0.0036821961402893066, 9.083908081054688, 1.0323176383972168, -0.4358222186565399, -66.4842529296875, 1.6178395748138428, 2.5189261436462402, -0.9638671875, -0.31787109375, -0.45361328125, 0, 
219, 4272339307, 0.3616923689842224, 0.6026098132133484, -0.33579304814338684, 0.6271229386329651, 0.9999883770942688, -0.00481020100414753, 0.00004907045513391495, 0.0002685682848095894, 0.07640969753265381, 0.0054267048835754395, -0.0038613080978393555, 9.169726371765137, 0.6509910225868225, -0.459792822599411, -66.14791870117188, 0.6747967600822449, 3.6932413578033447, -0.96044921875, -0.314453125, -0.45556640625, 0, 
220, 4272347640, 0.36438605189323425, 0.6008390188217163, -0.3388802409172058, 0.6256001591682434, 0.999988853931427, -0.004719844087958336, -0.000007914379239082336, 0.00023147370666265488, 0.07631522417068481, 0.0027863383293151855, -0.004022061824798584, 9.158265113830566, 0.3345298171043396, -0.48116135597229004, -64.90535736083984, -0.10883527994155884, 3.183131217956543, -0.96240234375, -0.310546875, -0.4599609375, 0, 
221, 4272355973, 0.3671691417694092, 0.5993673801422119, -0.34172865748405457, 0.623832643032074, 0.9999893307685852, -0.004611646756529808, -0.0000957883894443512, 0.000088508240878582, 0.07698512077331543, 0.0006924867630004883, -0.005831122398376465, 9.238524436950684, 0.08551125228404999, -0.700260579586029, -63.41747283935547, -1.3172425031661987, 1.2171289920806885, -0.96240234375, -0.30810546875, -0.46533203125, 0, 
222, 4272364306, 0.3698711395263672, 0.597858726978302, -0.3445228040218353, 0.6221451759338379, 0.9999898672103882, -0.00450202077627182, -0.00016074441373348236, -0.00009806826710700989, 0.07739019393920898, 0.00009918212890625, -0.008624494075775146, 9.287026405334473, 0.017472516745328903, -1.036410927772522, -61.909915924072266, -2.2104904651641846, -1.3485939502716064, -0.9638671875, -0.3056640625, -0.4638671875, 0, 
223, 4272372639, 0.3726781904697418, 0.5966317653656006, -0.34703660011291504, 0.6202476620674133, 0.9999904036521912, -0.004371859133243561, -0.0001878887414932251, -0.0002619028091430664, 0.07807284593582153, 0.0006795525550842285, -0.009944558143615723, 9.36886978149414, 0.0892249271273613, -1.1947875022888184, -60.11997604370117, -2.5837674140930176, -3.6015779972076416, -0.962646484375, -0.30419921875, -0.47314453125, 0, 
224, 4272380972, 0.37537410855293274, 0.5953179597854614, -0.34952446818351746, 0.6184850335121155, 0.9999908208847046, -0.004261769354343414, -0.00021550990641117096, -0.0003715492784976959, 0.07909303903579712, 0.0012609362602233887, -0.012379884719848633, 9.491166114807129, 0.1611843705177307, -1.4870331287384033, -58.606056213378906, -2.9636013507843018, -5.109388828277588, -0.962158203125, -0.3037109375, -0.4775390625, 0, 
225, 4272389305, 0.3781265914440155, 0.5942269563674927, -0.3518345355987549, 0.6165446639060974, 0.9999911785125732, -0.004177505150437355, -0.00022849813103675842, -0.00041820667684078217, 0.07949697971343994, 0.0031850337982177734, -0.009974181652069092, 9.539583206176758, 0.3912070691585541, -1.1975198984146118, -57.44728088378906, -3.142209768295288, -5.751000881195068, -0.964599609375, -0.30224609375, -0.47705078125, 0, 
226, 4272397638, 0.38082316517829895, 0.5929721593856812, -0.35427209734916687, 0.6146946549415588, 0.9999908804893494, -0.0042394474148750305, -0.0002849120646715164, -0.00045454129576683044, 0.08032608032226562, 0.006563246250152588, -0.01021277904510498, 9.638805389404297, 0.7972016930580139, -1.224975824356079, -58.29909896850586, -3.9179906845092773, -6.2506608963012695, -0.959716796875, -0.30078125, -0.480224609375, 0, 
227, 4272405971, 0.3835451602935791, 0.591918408870697, -0.35658615827560425, 0.612676203250885, 0.9999911189079285, -0.004175717011094093, -0.00029584765434265137, -0.00044304877519607544, 0.08320111036300659, 0.007934272289276123, -0.010647952556610107, 9.983731269836426, 0.9619151949882507, -1.2767692804336548, -57.422691345214844, -4.068371772766113, -6.0926194190979, -0.958984375, -0.2958984375, -0.483154296875, 0, 
228, 4272414304, 0.38622942566871643, 0.5906109809875488, -0.3590172231197357, 0.6108291745185852, 0.9999908804893494, -0.004247285425662994, -0.0002529975026845932, -0.0004298761487007141, 0.08436030149459839, 0.009440302848815918, -0.00897526741027832, 10.12287712097168, 1.1418099403381348, -1.0748107433319092, -58.40687942504883, -3.4791152477264404, -5.911475658416748, -0.9619140625, -0.29541015625, -0.487060546875, 0, 
229, 4272422637, 0.3890639841556549, 0.5894268751144409, -0.36141645908355713, 0.6087557673454285, 0.9999903440475464, -0.004364831373095512, -0.00022775866091251373, -0.000433092936873436, 0.08449095487594604, 0.01004326343536377, -0.007134914398193359, 10.13860034942627, 1.2133598327636719, -0.8532620072364807, -60.02334213256836, -3.1320419311523438, -5.955713272094727, -0.9619140625, -0.2939453125, -0.485595703125, 0, 
230, 4272430970, 0.3918715715408325, 0.5880419015884399, -0.36391839385032654, 0.6068006157875061, 0.9999900460243225, -0.004432296380400658, -0.00025241076946258545, -0.0004762839525938034, 0.08430850505828857, 0.008717536926269531, -0.006813764572143555, 10.116719245910645, 1.05458664894104, -0.8155882358551025, -60.951080322265625, -3.4710474014282227, -6.549657344818115, -0.96337890625, -0.29296875, -0.492431640625, 0, 
231, 4272439303, 0.3947853446006775, 0.5869097709655762, -0.3662908375263214, 0.6045763492584229, 0.9999899864196777, -0.004430318251252174, -0.0002986416220664978, -0.0005688648670911789, 0.08484786748886108, 0.009127616882324219, -0.007300198078155518, 10.181264877319336, 1.1050220727920532, -0.8742336630821228, -60.92388916015625, -4.106794834136963, -7.822790622711182, -0.9599609375, -0.28955078125, -0.493896484375, 0, 
232, 4272447636, 0.3976966440677643, 0.585599958896637, -0.3686846196651459, 0.6024797558784485, 0.9999898076057434, -0.0044499654322862625, -0.0003007706254720688, -0.0006846841424703598, 0.08559983968734741, 0.008967399597167969, -0.007945835590362549, 10.271364212036133, 1.087401270866394, -0.9518229365348816, -61.19408416748047, -4.136072635650635, -9.415492057800293, -0.95849609375, -0.29248046875, -0.496337890625, 0, 
233, 4272455969, 0.40073153376579285, 0.5845111012458801, -0.37090209126472473, 0.6001607775688171, 0.9999898672103882, -0.004426121711730957, -0.0002658143639564514, -0.000781157985329628, 0.08494096994400024, 0.008128881454467773, -0.013476729393005371, 10.19212818145752, 0.9906186461448669, -1.6156423091888428, -60.866180419921875, -3.6553683280944824, -10.742159843444824, -0.957763671875, -0.28759765625, -0.502197265625, 0, 
234, 4272464302, 0.4036731719970703, 0.5832242369651794, -0.3730337619781494, 0.5981165766716003, 0.9999904632568359, -0.004281649366021156, -0.0001682806760072708, -0.0008427035063505173, 0.08534294366836548, 0.009562551975250244, -0.01540917158126831, 10.240279197692871, 1.164097547531128, -1.8459603786468506, -58.87944793701172, -2.3141252994537354, -11.588505744934082, -0.958251953125, -0.28564453125, -0.505615234375, 0, 
235, 4272472635, 0.40673163533210754, 0.5821164846420288, -0.37498512864112854, 0.5958992838859558, 0.9999905824661255, -0.0042514316737651825, -0.00006661005318164825, -0.0008990168571472168, 0.08561575412750244, 0.008199870586395264, -0.014442384243011475, 10.273295402526855, 1.0006301403045654, -1.7296313047409058, -58.46391296386719, -0.9159935712814331, -12.362903594970703, -0.960205078125, -0.2861328125, -0.508056640625, 0, 
236, 4272480968, 0.4097879230976105, 0.5807292461395264, -0.3769392669200897, 0.5939229130744934, 0.9999904632568359, -0.004257991909980774, 0.00004587974399328232, -0.0009484495967626572, 0.08550113439559937, 0.007402598857879639, -0.013915598392486572, 10.259774208068848, 0.905193567276001, -1.6656590700149536, -58.55411911010742, 0.6309190392494202, -13.042681694030762, -0.956787109375, -0.28564453125, -0.510986328125, 0, 
237, 4272489301, 0.4129369556903839, 0.5795276165008545, -0.37868088483810425, 0.5918038487434387, 0.9999907612800598, -0.00418231263756752, 0.00018354598432779312, -0.0009961631149053574, 0.08595257997512817, 0.006151378154754639, -0.014252245426177979, 10.314294815063477, 0.7556062340736389, -1.7053354978561401, -57.51340866088867, 2.524047374725342, -13.698817253112793, -0.956298828125, -0.28369140625, -0.513916015625, 0, 
238, 4272497634, 0.4159800410270691, 0.5781213045120239, -0.38030365109443665, 0.5900048017501831, 0.9999914169311523, -0.00399496965110302, 0.00029155146330595016, -0.0010517332702875137, 0.08545506000518799, 0.0055654048919677734, -0.013653457164764404, 10.254786491394043, 0.6851841807365417, -1.632804036140442, -54.93714141845703, 4.009293556213379, -14.462992668151855, -0.955810546875, -0.28125, -0.514404296875, 0, 
239, 4272505967, 0.4189876914024353, 0.5770434737205505, -0.3816297650337219, 0.5880722403526306, 0.999992311000824, -0.0037347134202718735, 0.00035285111516714096, -0.0011227354407310486, 0.08610278367996216, 0.004769384860992432, -0.012272179126739502, 10.332616806030273, 0.5894264578819275, -1.4669209718704224, -51.358177185058594, 4.852257251739502, -15.439376831054688, -0.952880859375, -0.283203125, -0.518798828125, 0, 
240, 4272514300, 0.42177343368530273, 0.5758941173553467, -0.38276299834251404, 0.5864689946174622, 0.9999935030937195, -0.003376368433237076, 0.0003597559407353401, -0.0011981036514043808, 0.08541667461395264, 0.00438922643661499, -0.012730062007904053, 10.250321388244629, 0.5441601872444153, -1.5221832990646362, -46.430355072021484, 4.947207450866699, -16.475801467895508, -0.9541015625, -0.28515625, -0.522705078125, 0, 
241, 4272522633, 0.4243813455104828, 0.5752198696136475, -0.38360700011253357, 0.5846952199935913, 0.999994695186615, -0.002992793917655945, 0.00027191173285245895, -0.0012560412287712097, 0.08408057689666748, 0.00435030460357666, -0.012553274631500244, 10.089818000793457, 0.5392371416091919, -1.502129316329956, -41.15559005737305, 3.739211082458496, -17.27252960205078, -0.95068359375, -0.28271484375, -0.524658203125, 0, 
242, 4272530966, 0.4267205595970154, 0.57449871301651, -0.3844159245491028, 0.5831684470176697, 0.9999955296516418, -0.002719299867749214, 0.00011937413364648819, -0.0012543387711048126, 0.08280706405639648, 0.008426249027252197, -0.013825535774230957, 9.936169624328613, 1.0281405448913574, -1.6551847457885742, -37.39461135864258, 1.64158034324646, -17.249113082885742, -0.95068359375, -0.28466796875, -0.530029296875, 0, 
243, 4272539299, 0.4289743900299072, 0.5741086006164551, -0.38521724939346313, 0.5813673734664917, 0.999995768070221, -0.0026557911187410355, -0.000013515353202819824, -0.0011986680328845978, 0.0819510817527771, 0.008576810359954834, -0.013395488262176514, 9.833260536193848, 1.04531991481781, -1.6049071550369263, -36.52125930786133, -0.1858571469783783, -16.483551025390625, -0.9482421875, -0.283203125, -0.53173828125, 0, 
244, 4272547632, 0.4311525821685791, 0.5734180212020874, -0.38616612553596497, 0.5798059701919556, 0.9999957084655762, -0.0027089808136224747, -0.00003979913890361786, -0.0011058226227760315, 0.08379650115966797, 0.009224236011505127, -0.013783752918243408, 10.054686546325684, 1.1225330829620361, -1.6515069007873535, -37.25270462036133, -0.5473001599311829, -15.206783294677734, -0.947265625, -0.2841796875, -0.5322265625, 0, 
245, 4272555965, 0.43343234062194824, 0.5728330016136169, -0.3871690630912781, 0.5780128240585327, 0.9999953508377075, -0.0028704609721899033, 0.000043111853301525116, -0.001019129529595375, 0.08553647994995117, 0.011571407318115234, -0.012742221355438232, 10.263435363769531, 1.4034518003463745, -1.5246906280517578, -39.47331237792969, 0.5928552746772766, -14.01462173461914, -0.9453125, -0.28369140625, -0.53564453125, 0, 
246, 4272564298, 0.4358510375022888, 0.5718219876289368, -0.3883501887321472, 0.5764004588127136, 0.9999945759773254, -0.003139916807413101, 0.00010954868048429489, -0.0010093022137880325, 0.08682906627655029, 0.011622071266174316, -0.009558916091918945, 10.418619155883789, 1.408801555633545, -1.1415866613388062, -43.17876434326172, 1.5064656734466553, -13.87948226928711, -0.94580078125, -0.28125, -0.53466796875, 0, 
247, 4272572631, 0.4384998679161072, 0.5708800554275513, -0.38960739970207214, 0.5744736194610596, 0.9999935626983643, -0.003437502309679985, 0.00021981168538331985, -0.0010041594505310059, 0.08833587169647217, 0.010757803916931152, -0.006973326206207275, 10.599610328674316, 1.3045028448104858, -0.8300483226776123, -47.27103805541992, 3.022754669189453, -13.808765411376953, -0.94482421875, -0.28369140625, -0.5390625, 0, 
248, 4272580964, 0.44134408235549927, 0.5694307088851929, -0.39094090461730957, 0.5728259086608887, 0.9999926090240479, -0.003676554188132286, 0.0004408927634358406, -0.0010110735893249512, 0.09121429920196533, 0.012106776237487793, -0.0038654208183288574, 10.94488525390625, 1.4656213521957397, -0.4536939561367035, -50.55839920043945, 6.062968730926514, -13.903850555419922, -0.944580078125, -0.2802734375, -0.54345703125, 0, 
249, 4272589297, 0.44449931383132935, 0.5679769515991211, -0.3922969698905945, 0.5708991885185242, 0.9999911785125732, -0.004010172560811043, 0.0006761318072676659, -0.001035073772072792, 0.09202969074249268, 0.010881662368774414, -0.00069427490234375, 11.042701721191406, 1.317602276802063, -0.07059508562088013, -55.146202087402344, 9.297879219055176, -14.233896255493164, -0.942138671875, -0.27978515625, -0.54833984375, 0, 
250, 4272597630, 0.44787606596946716, 0.5660622119903564, -0.3937439024448395, 0.5691630840301514, 0.9999898672103882, -0.004285499453544617, 0.0008154110983014107, -0.001107020303606987, 0.09262305498123169, 0.010259807109832764, 0.0006855130195617676, 11.113771438598633, 1.2431628704071045, 0.09662838280200958, -58.932411193847656, 11.213193893432617, -15.223282814025879, -0.938232421875, -0.28076171875, -0.55078125, 0, 
251, 4272605963, 0.45145323872566223, 0.5642797350883484, -0.39509543776512146, 0.5671668648719788, 0.9999890327453613, -0.004422830417752266, 0.0009932341054081917, -0.001175886020064354, 0.09610819816589355, 0.010070621967315674, 0.0023593902587890625, 11.531732559204102, 1.2208092212677002, 0.29995930194854736, -60.82094192504883, 13.65854549407959, -16.170299530029297, -0.937255859375, -0.28125, -0.5576171875, 0, 
252, 4272614296, 0.45518916845321655, 0.5620272159576416, -0.3963679373264313, 0.5655271410942078, 0.9999882578849792, -0.004504036158323288, 0.0012820111587643623, -0.001231759786605835, 0.09802097082138062, 0.006741046905517578, 0.005096018314361572, 11.761192321777344, 0.8206676840782166, 0.630293071269989, -61.937660217285156, 17.62969398498535, -16.93865394592285, -0.9365234375, -0.28125, -0.5634765625, 0, 
253, 4272622629, 0.45906341075897217, 0.559967041015625, -0.39750075340270996, 0.5636407136917114, 0.999987781047821, -0.004550458863377571, 0.0014259396120905876, -0.0013056881725788116, 0.09639102220535278, 0.005160689353942871, 0.005393266677856445, 11.565638542175293, 0.6314323544502258, 0.6665425896644592, -62.57606887817383, 19.608943939208984, -17.95529556274414, -0.93310546875, -0.2763671875, -0.5654296875, 0, 
254, 4272630962, 0.46290671825408936, 0.5576477646827698, -0.3986499309539795, 0.5619826912879944, 0.9999878406524658, -0.004533067345619202, 0.0014085182920098305, -0.0013425853103399277, 0.09517335891723633, 0.0033558011054992676, 0.005291759967803955, 11.41981029510498, 0.41514667868614197, 0.6529772877693176, -62.33689880371094, 19.369373321533203, -18.46268653869629, -0.93115234375, -0.275390625, -0.57470703125, 0, 
255, 4272639295, 0.4667309820652008, 0.5556343793869019, -0.39974769949913025, 0.5600307583808899, 0.9999880194664001, -0.004508752375841141, 0.0013518715277314186, -0.0013490654528141022, 0.09464699029922485, 0.0016835927963256836, 0.006291091442108154, 11.356786727905273, 0.21394018828868866, 0.7712540626525879, -62.002532958984375, 18.590389251708984, -18.551799774169922, -0.93017578125, -0.27685546875, -0.5810546875, 0, 
256, 4272647628, 0.47044438123703003, 0.5534157752990723, -0.4009750485420227, 0.5582402944564819, 0.9999882578849792, -0.004511477425694466, 0.001190084032714367, -0.0013271290808916092, 0.09263157844543457, 0.000340878963470459, 0.004205882549285889, 11.11556625366211, 0.05336902663111687, 0.5181657671928406, -62.040000915527344, 16.365550994873047, -18.250139236450195, -0.924072265625, -0.272705078125, -0.584716796875, 0, 
257, 4272655961, 0.47398507595062256, 0.5516162514686584, -0.4022027850151062, 0.5561391115188599, 0.9999890923500061, -0.004384471103549004, 0.0009676879271864891, -0.0012814179062843323, 0.09194344282150269, -0.001577615737915039, 0.002803802490234375, 11.033560752868652, -0.17666469514369965, 0.3463413715362549, -60.293434143066406, 13.307245254516602, -17.621530532836914, -0.922119140625, -0.277587890625, -0.589599609375, 0, 
258, 4272664294, 0.4773109257221222, 0.5496347546577454, -0.4034643769264221, 0.5543397665023804, 0.9999900460243225, -0.004208769649267197, 0.0008812183514237404, -0.00119028240442276, 0.09469175338745117, 0.0012549161911010742, 0.0038233399391174316, 11.362873077392578, 0.1621759831905365, 0.46948331594467163, -57.87723922729492, 12.118146896362305, -16.36826515197754, -0.919189453125, -0.272216796875, -0.593017578125, 0, 
259, 4272672627, 0.4806102216243744, 0.5479137301445007, -0.4047100245952606, 0.5522809028625488, 0.9999901056289673, -0.004207620397210121, 0.0008371761068701744, -0.0011605564504861832, 0.09462994337081909, 0.0007089972496032715, 0.006081342697143555, 11.355328559875488, 0.09518110752105713, 0.7396730184555054, -57.86143493652344, 11.512495994567871, -15.959488868713379, -0.921875, -0.27099609375, -0.601318359375, 0, 
260, 4272680960, 0.48388034105300903, 0.5459603667259216, -0.40604662895202637, 0.5503755807876587, 0.9999899864196777, -0.004249515011906624, 0.0007493747398257256, -0.0011796057224273682, 0.09547221660614014, 0.0021414756774902344, 0.006928741931915283, 11.456191062927246, 0.26694783568382263, 0.8411670327186584, -58.437557220458984, 10.305088996887207, -16.221446990966797, -0.91845703125, -0.270751953125, -0.600830078125, 0, 
261, 4272689293, 0.4872135519981384, 0.5442206263542175, -0.4073691964149475, 0.5481765270233154, 0.9999896287918091, -0.0043347980827093124, 0.0007422929629683495, -0.0012069828808307648, 0.09563851356506348, 0.0022046566009521484, 0.008548498153686523, 11.475993156433105, 0.27396243810653687, 1.0355422496795654, -59.6103401184082, 10.207704544067383, -16.59792709350586, -0.9150390625, -0.265380859375, -0.607666015625, 0, 
262, 4272697626, 0.49058979749679565, 0.5421925783157349, -0.4087074100971222, 0.5461753606796265, 0.9999893307685852, -0.004384014755487442, 0.0007806224748492241, -0.0012521203607320786, 0.09475016593933105, 0.002658367156982422, 0.010044574737548828, 11.369128227233887, 0.3279547095298767, 1.215685248374939, -60.28715896606445, 10.734797477722168, -17.218643188476562, -0.91259765625, -0.263427734375, -0.611572265625, 0, 
263, 4272705959, 0.49401408433914185, 0.54041987657547, -0.41001927852630615, 0.5438573360443115, 0.9999889731407166, -0.00444304384291172, 0.000730566680431366, -0.001316191628575325, 0.08993232250213623, 0.0018559694290161133, 0.011907696723937988, 10.790968894958496, 0.2305629402399063, 1.4378610849380493, -61.09889602661133, 10.0464506149292, -18.099721908569336, -0.91455078125, -0.265869140625, -0.614990234375, 0, 
264, 4272714292, 0.49733081459999084, 0.5385503172874451, -0.4113854765892029, 0.5416528582572937, 0.9999893307685852, -0.004372788593173027, 0.0005463259294629097, -0.0013688448816537857, 0.08582055568695068, 0.0019463300704956055, 0.012289762496948242, 10.297749519348145, 0.2412019670009613, 1.4814847707748413, -60.132781982421875, 7.512847900390625, -18.82378578186035, -0.910888671875, -0.263916015625, -0.619873046875, 0, 
265, 4272722625, 0.5004587769508362, 0.5370537638664246, -0.4127480089664459, 0.5392155647277832, 0.9999901652336121, -0.004222173243761063, 0.0003584781661629677, -0.0013089030981063843, 0.08191245794296265, -0.0003529191017150879, 0.013125598430633545, 9.829376220703125, -0.03614063933491707, 1.5784887075424194, -58.061561584472656, 4.929641246795654, -17.999486923217773, -0.910400390625, -0.259521484375, -0.624755859375, 0, 
266, 4272730958, 0.5033213496208191, 0.5354694724082947, -0.4142511487007141, 0.5369694232940674, 0.9999909996986389, -0.004077823832631111, 0.00011427048593759537, -0.0011872611939907074, 0.07790958881378174, -0.00006210803985595703, 0.014846980571746826, 9.34932804107666, -0.003618003334850073, 1.7827526330947876, -56.07651901245117, 1.5713996887207031, -16.326717376708984, -0.908935546875, -0.260986328125, -0.63037109375, 0, 
267, 4272739291, 0.505980908870697, 0.5341904163360596, -0.4159214198589325, 0.5344469547271729, 0.9999911785125732, -0.004061097279191017, -0.00016497820615768433, -0.0010338462889194489, 0.0737764835357666, -0.0013083219528198242, 0.016117870807647705, 8.854012489318848, -0.15570418536663055, 1.9321260452270508, -55.84649658203125, -2.2687108516693115, -14.217019081115723, -0.909423828125, -0.258544921875, -0.63232421875, 0, 
268, 4272747624, 0.5083498954772949, 0.5328382849693298, -0.4178146421909332, 0.5320665836334229, 0.9999916553497314, -0.003961540758609772, -0.00048339366912841797, -0.0008776970207691193, 0.0710073709487915, -0.003439605236053467, 0.015052735805511475, 8.52245807647705, -0.4124384820461273, 1.8006491661071777, -54.4774284362793, -6.647424697875977, -12.069718360900879, -0.904541015625, -0.253662109375, -0.63232421875, 0, 
269, 4272755957, 0.5104588866233826, 0.5317941308021545, -0.4197884202003479, 0.5295323729515076, 0.9999922513961792, -0.0038125552237033844, -0.0006957501173019409, -0.0006918329745531082, 0.07262831926345825, -0.004896104335784912, 0.013241350650787354, 8.717256546020508, -0.5875732898712158, 1.5807214975357056, -52.428627014160156, -9.567658424377441, -9.51379108428955, -0.90478515625, -0.254150390625, -0.638671875, 0, 
270, 4272764290, 0.5124284625053406, 0.5305110216140747, -0.4219048023223877, 0.5272301435470581, 0.9999923706054688, -0.0037995297461748123, -0.0007593221962451935, -0.0005348846316337585, 0.07399213314056396, -0.006611943244934082, 0.01407778263092041, 8.88111400604248, -0.7951205968856812, 1.6796483993530273, -52.24951171875, -10.441874504089355, -7.355504989624023, -0.9091796875, -0.253173828125, -0.63623046875, 0, 
271, 4272772623, 0.5144064426422119, 0.5293217897415161, -0.4241008460521698, 0.5247313976287842, 0.9999919533729553, -0.003916861489415169, -0.000783529132604599, -0.0004386473447084427, 0.07624059915542603, -0.007913708686828613, 0.014170169830322266, 9.150984764099121, -0.9523162841796875, 1.6895925998687744, -53.863014221191406, -10.774760246276855, -6.032092094421387, -0.9072265625, -0.248291015625, -0.640625, 0, 
272, 4272780956, 0.5164918303489685, 0.5277420282363892, -0.42643481492996216, 0.5223774313926697, 0.9999910593032837, -0.0041496288031339645, -0.0006930585950613022, -0.0003807246685028076, 0.07492762804031372, -0.009573400020599365, 0.015283167362213135, 8.993382453918457, -1.1530274152755737, 1.823043942451477, -57.06393814086914, -9.530649185180664, -5.235564708709717, -0.90673828125, -0.244873046875, -0.6396484375, 0, 
273, 4272789289, 0.5187268257141113, 0.5261695981025696, -0.4287591874599457, 0.5198401808738708, 0.9999904036521912, -0.004330385476350784, -0.0005746763199567795, -0.0003791172057390213, 0.07382780313491821, -0.00894385576248169, 0.01599210500717163, 8.861199378967285, -1.078242301940918, 1.9093843698501587, -59.54964828491211, -7.902708053588867, -5.213461399078369, -0.904296875, -0.242431640625, -0.640625, 0, 
274, 4272797622, 0.5210660099983215, 0.5243090391159058, -0.4310254156589508, 0.5175014138221741, 0.9999902248382568, -0.004386952146887779, -0.0003951340913772583, -0.00041995197534561157, 0.07100391387939453, -0.008486330509185791, 0.016675710678100586, 8.522028923034668, -1.0235902070999146, 1.9933221340179443, -60.327537536621094, -5.433719158172607, -5.7750043869018555, -0.90380859375, -0.236572265625, -0.64599609375, 0, 
275, 4272805955, 0.5235200524330139, 0.5225579142570496, -0.4331643581390381, 0.5150033831596375, 0.9999900460243225, -0.004421863704919815, -0.00028701499104499817, -0.0005115792155265808, 0.06712311506271362, -0.006813168525695801, 0.017690420150756836, 8.056123733520508, -0.8228735327720642, 2.1169967651367188, -60.80762481689453, -3.9469101428985596, -7.035023212432861, -0.90478515625, -0.234619140625, -0.646484375, 0, 
276, 4272814288, 0.5260839462280273, 0.5206277370452881, -0.43527349829673767, 0.5125615000724792, 0.9999896287918091, -0.0045043956488370895, -0.00023377873003482819, -0.0006414838135242462, 0.06354612112045288, -0.005562961101531982, 0.01861327886581421, 7.626789569854736, -0.6727408170700073, 2.2288880348205566, -61.94257736206055, -3.2148280143737793, -8.821418762207031, -0.905029296875, -0.231201171875, -0.65087890625, 0, 
277, 4272822621, 0.5287680625915527, 0.5188354849815369, -0.43731364607810974, 0.5098735690116882, 0.9999891519546509, -0.004591960459947586, -0.00023107416927814484, -0.0007787346839904785, 0.061087071895599365, -0.004557609558105469, 0.01755279302597046, 7.331655025482178, -0.5508939623832703, 2.102205753326416, -63.14674758911133, -3.1776366233825684, -10.708837509155273, -0.906005859375, -0.232177734375, -0.65185546875, 0, 
278, 4272830954, 0.5315071940422058, 0.5169073939323425, -0.4393663704395294, 0.5072122812271118, 0.9999887347221375, -0.004661392420530319, -0.00024259276688098907, -0.0008766092360019684, 0.06078135967254639, -0.003284752368927002, 0.0190390944480896, 7.294955253601074, -0.3984372019767761, 2.281167984008789, -64.10154724121094, -3.3360354900360107, -12.054769515991211, -0.905517578125, -0.226318359375, -0.65380859375, 0, 
279, 4272839287, 0.5343479514122009, 0.5150493383407593, -0.4414302706718445, 0.5043174028396606, 0.9999879598617554, -0.00480743870139122, -0.0002674851566553116, -0.0009386986494064331, 0.06013280153274536, -0.002444326877593994, 0.01980799436569214, 7.217135906219482, -0.2979763448238373, 2.3737082481384277, -66.10993957519531, -3.678346872329712, -12.908601760864258, -0.905029296875, -0.223388671875, -0.65576171875, 0, 
280, 4272847620, 0.5372056365013123, 0.5130475163459778, -0.44361910223960876, 0.5013927817344666, 0.9999872446060181, -0.004946684464812279, -0.00036164000630378723, -0.000973917543888092, 0.05949431657791138, -0.0015076398849487305, 0.019574761390686035, 7.140629768371582, -0.18558315932750702, 2.3455820083618164, -68.0248031616211, -4.973127365112305, -13.392919540405273, -0.902587890625, -0.218017578125, -0.6572265625, 0, 
281, 4272855953, 0.54009610414505, 0.5110997557640076, -0.4458990693092346, 0.4982442557811737, 0.9999864101409912, -0.005098853260278702, -0.0004656147211790085, -0.0009578391909599304, 0.05992239713668823, -0.0013919472694396973, 0.018280863761901855, 7.19215726852417, -0.17132891714572906, 2.1895859241485596, -70.11739349365234, -6.402947902679443, -13.171820640563965, -0.90283203125, -0.219482421875, -0.66455078125, 0, 
282, 4272864286, 0.5429567694664001, 0.5089520812034607, -0.4483541250228882, 0.4951205551624298, 0.9999856948852539, -0.005248403176665306, -0.0005330927670001984, -0.0008809715509414673, 0.06136977672576904, -0.0013048052787780762, 0.017055273056030273, 7.365896224975586, -0.16082876920700073, 2.0419578552246094, -72.1739501953125, -7.3308796882629395, -12.114768981933594, -0.90185546875, -0.214599609375, -0.66357421875, 0, 
283, 4272872619, 0.5458630323410034, 0.506721019744873, -0.4508921802043915, 0.4918981194496155, 0.9999849200248718, -0.005418529734015465, -0.0005135517567396164, -0.0007546842098236084, 0.06244969367980957, -0.0018943548202514648, 0.01674753427505493, 7.4954657554626465, -0.23255577683448792, 2.004694700241089, -74.51348876953125, -7.062161922454834, -10.378121376037598, -0.9052734375, -0.212646484375, -0.66796875, 0, 
