PacketCounter,SampleTimeFine,Quat_W,Quat_X,Quat_Y,Quat_Z,dq_W,dq_X,dq_Y,dq_Z,dv[1],dv[2],dv[3],Acc_X,Acc_Y,Acc_Z,Gyr_X,Gyr_Y,Gyr_Z,Mag_X,Mag_Y,Mag_Z,Status,
701, 1258197835, -0.27277350425720215, -0.6769134998321533, 0.19089825451374054, -0.6564610600471497, 0.9999948740005493, 0.0027887867763638496, 0.0002452181652188301, 0.0015396373346447945, 0.07934468984603882, 0.011872172355651855, 0.000987231731414795, 9.523904800415039, 1.4103654623031616, 0.11684541404247284, 38.35017013549805, 3.3721323013305664, 21.172414779663086, -0.88037109375, -0.430419921875, -0.41357421875, 0, 
702, 1258206168, -0.2699183225631714, -0.6771029829978943, 0.18995603919029236, -0.6577180027961731, 0.9999946355819702, 0.002845597453415394, 0.00046178046613931656, 0.001570546068251133, 0.07875102758407593, 0.012655377388000488, 0.0019001960754394531, 9.452775955200195, 1.5044965744018555, 0.22808916866779327, 39.13140869140625, 6.350203037261963, 21.597461700439453, -0.8818359375, -0.431640625, -0.41455078125, 0, 
703, 1258214501, -0.2670840919017792, -0.6772142052650452, 0.1890801191329956, -0.6590115427970886, 0.9999947547912598, 0.002767515368759632, 0.0005231602117419243, 0.0016059288755059242, 0.07647109031677246, 0.01334470510482788, 0.0027313828468322754, 9.179292678833008, 1.5875862836837769, 0.32816147804260254, 38.057655334472656, 7.194269180297852, 22.084026336669922, -0.88232421875, -0.42919921875, -0.4091796875, 0, 
704, 1258222834, -0.2642926573753357, -0.6773984432220459, 0.18824271857738495, -0.660186231136322, 0.9999949932098389, 0.002716262824833393, 0.00039331335574388504, 0.0015786746516823769, 0.07538110017776489, 0.014490604400634766, 0.0034593939781188965, 9.048666000366211, 1.7258013486862183, 0.4139920473098755, 37.35285186767578, 5.408672332763672, 21.709239959716797, -0.88427734375, -0.42919921875, -0.4091796875, 0, 
705, 1258231167, -0.26155686378479004, -0.6776525974273682, 0.18745994567871094, -0.6612367033958435, 0.9999953508377075, 0.0026320358738303185, 0.000257798470556736, 0.0015148622915148735, 0.07405298948287964, 0.016287803649902344, 0.004465043544769287, 8.889533996582031, 1.9425466060638428, 0.5329808592796326, 36.19459533691406, 3.545130729675293, 20.83171844482422, -0.88525390625, -0.4267578125, -0.40576171875, 0, 
706, 1258239500, -0.25895988941192627, -0.6779535412788391, 0.18671712279319763, -0.6621598601341248, 0.9999958276748657, 0.002505454234778881, 0.00015742052346467972, 0.0014260197058320045, 0.07494562864303589, 0.017843127250671387, 0.004036426544189453, 8.996809959411621, 2.129631757736206, 0.48044705390930176, 34.453895568847656, 2.1647775173187256, 19.6099910736084, -0.88818359375, -0.421875, -0.4013671875, 0, 
707, 1258247833, -0.25642523169517517, -0.6782490015029907, 0.1859959065914154, -0.6630461812019348, 0.9999960660934448, 0.0024361135438084602, 0.00014026369899511337, 0.0013764211907982826, 0.07540643215179443, 0.01778435707092285, 0.004787325859069824, 9.051980972290039, 2.1231629848480225, 0.5705869197845459, 33.5003547668457, 1.9288442134857178, 18.927934646606445, -0.8876953125, -0.42724609375, -0.40185546875, 0, 
708, 1258256166, -0.2538970708847046, -0.6785509586334229, 0.18527129292488098, -0.6639124155044556, 0.9999960660934448, 0.002436417154967785, 0.00012615788727998734, 0.0013778721913695335, 0.07547879219055176, 0.018009483814239502, 0.0065076351165771484, 9.060688018798828, 2.1506588459014893, 0.7768396735191345, 33.5045280456543, 1.7348673343658447, 18.947885513305664, -0.88916015625, -0.4228515625, -0.39990234375, 0, 
709, 1258264499, -0.2514077126979828, -0.678802490234375, 0.1845608949661255, -0.6647999882698059, 0.9999961853027344, 0.002388431690633297, 0.00017558876425027847, 0.0013669868931174278, 0.07556498050689697, 0.0173836350440979, 0.006341040134429932, 9.07087230682373, 2.0755434036254883, 0.7575753927230835, 32.84465026855469, 2.4146182537078857, 18.798194885253906, -0.89111328125, -0.421875, -0.396484375, 0, 
710, 1258272832, -0.24909554421901703, -0.6789506077766418, 0.183908149600029, -0.6656994819641113, 0.9999966621398926, 0.0022093234583735466, 0.0002727145329117775, 0.0013199122622609138, 0.07508736848831177, 0.016694068908691406, 0.00605243444442749, 9.013289451599121, 1.9930651187896729, 0.724358081817627, 30.381624221801758, 3.7502481937408447, 18.150840759277344, -0.89306640625, -0.42333984375, -0.3955078125, 0, 
711, 1258281165, -0.24697168171405792, -0.6790065169334412, 0.18332916498184204, -0.6665927767753601, 0.9999971389770508, 0.00200632493942976, 0.00034284498542547226, 0.001255539245903492, 0.07432562112808228, 0.01673656702041626, 0.00560373067855835, 8.921719551086426, 1.998612403869629, 0.6715095043182373, 27.590078353881836, 4.714650630950928, 17.26561164855957, -0.8916015625, -0.419921875, -0.3935546875, 0, 
712, 1258289498, -0.24506165087223053, -0.6790408492088318, 0.1828228086233139, -0.6674013733863831, 0.9999976754188538, 0.0017937785014510155, 0.0003243153914809227, 0.0011499067768454552, 0.07372123003005981, 0.01822739839553833, 0.006040453910827637, 8.849180221557617, 2.1784932613372803, 0.7238339781761169, 24.667232513427734, 4.4598388671875, 15.812999725341797, -0.890625, -0.419921875, -0.392578125, 0, 
713, 1258297831, -0.2433125376701355, -0.6790997982025146, 0.18235808610916138, -0.6681080460548401, 0.9999980926513672, 0.0016432655975222588, 0.0002535218372941017, 0.0010415101423859596, 0.07419699430465698, 0.020294010639190674, 0.0054877400398254395, 8.906359672546387, 2.4271957874298096, 0.6568172574043274, 22.59744644165039, 3.4863181114196777, 14.322378158569336, -0.893798828125, -0.419921875, -0.390869140625, 0, 
714, 1258306164, -0.2416868805885315, -0.6791584491729736, 0.18193569779396057, -0.6687533259391785, 0.9999983310699463, 0.001520729623734951, 0.00022854190319776535, 0.0009726891294121742, 0.07501554489135742, 0.02109616994857788, 0.004215896129608154, 9.004566192626953, 2.5236597061157227, 0.5041408538818359, 20.91238021850586, 3.142803907394409, 13.375977516174316, -0.89501953125, -0.41650390625, -0.392578125, 0, 
715, 1258314497, -0.24022267758846283, -0.6791828274726868, 0.1815863847732544, -0.6693508625030518, 0.9999986290931702, 0.0013459036126732826, 0.000225958414375782, 0.0009151464328169823, 0.07475972175598145, 0.019601047039031982, 0.00556790828704834, 8.973531723022461, 2.344874858856201, 0.6670354604721069, 18.50825309753418, 3.1072769165039062, 12.584676742553711, -0.89599609375, -0.4140625, -0.391357421875, 0, 
716, 1258322830, -0.2389243096113205, -0.6791724562644958, 0.1812923401594162, -0.6699056625366211, 0.999998927116394, 0.0011795936152338982, 0.00024187471717596054, 0.0008315658196806908, 0.07383763790130615, 0.017878234386444092, 0.0061261653900146484, 8.862476348876953, 2.138958692550659, 0.7347835898399353, 16.22123146057129, 3.32615065574646, 11.435314178466797, -0.899169921875, -0.4140625, -0.389404296875, 0, 
717, 1258331163, -0.23783473670482635, -0.6791020631790161, 0.18104980885982513, -0.670430064201355, 0.9999992251396179, 0.0009857537224888802, 0.0002820407971739769, 0.0007427847012877464, 0.0726628303527832, 0.01661914587020874, 0.005351006984710693, 8.721192359924316, 1.9885097742080688, 0.6426438093185425, 13.555634498596191, 3.878495693206787, 10.214433670043945, -0.894287109375, -0.4140625, -0.388916015625, 0, 
718, 1258339496, -0.23686659336090088, -0.6790225505828857, 0.1808878779411316, -0.6708968281745911, 0.9999994039535522, 0.000834277831017971, 0.00025679823011159897, 0.000691545195877552, 0.0712175965309143, 0.014832735061645508, 0.004188120365142822, 8.547564506530762, 1.7744574546813965, 0.5033125281333923, 11.47260570526123, 3.5313711166381836, 9.509811401367188, -0.895751953125, -0.41455078125, -0.386474609375, 0, 
719, 1258347829, -0.23613327741622925, -0.6790046691894531, 0.18086862564086914, -0.6711786389350891, 0.9999996423721313, 0.0005640974268317223, 0.00009287800639867783, 0.0005935775116086006, 0.0688585638999939, 0.01404637098312378, 0.0031749606132507324, 8.264331817626953, 1.6808983087539673, 0.38082653284072876, 7.75720739364624, 1.2772154808044434, 8.162603378295898, -0.8974609375, -0.4150390625, -0.390869140625, 0, 
720, 1258356162, -0.2354767620563507, -0.6790820956230164, 0.18092773854732513, -0.6713149547576904, 0.9999997615814209, 0.00045164022594690323, -0.00006883218884468079, 0.0005261441692709923, 0.0689818263053894, 0.013657033443450928, 0.003071010112762451, 8.279021263122559, 1.6347954273223877, 0.3672497272491455, 6.21074914932251, -0.9465486407279968, 7.235293865203857, -0.899169921875, -0.412109375, -0.388427734375, 0, 
721, 1258364495, -0.23507457971572876, -0.6791888475418091, 0.18102574348449707, -0.6713215112686157, 0.9999998807907104, 0.00024138297885656357, -0.00014559924602508545, 0.0003673294559121132, 0.0697888731956482, 0.013373315334320068, 0.003550291061401367, 8.375632286071777, 1.6019682884216309, 0.4244885742664337, 3.3193867206573486, -2.002213478088379, 5.051344394683838, -0.897216796875, -0.41357421875, -0.384521484375, 0, 
722, 1258372828, -0.23481591045856476, -0.6793254613876343, 0.1811927706003189, -0.67122882604599, 0.9999999403953552, 0.00008145440369844437, -0.00021744705736637115, 0.0002676965668797493, 0.06942301988601685, 0.01246178150177002, 0.0033611655235290527, 8.331557273864746, 1.4933876991271973, 0.40152063965797424, 1.1201233863830566, -2.990231513977051, 3.681239366531372, -0.898193359375, -0.4140625, -0.389404296875, 0, 
723, 1258381161, -0.2347009778022766, -0.6795157194137573, 0.1814081221818924, -0.671018123626709, 0.9999999403953552, -0.00005095452070236206, -0.000325007364153862, 0.00019147340208292007, 0.07009655237197876, 0.012157142162322998, 0.0024475455284118652, 8.412307739257812, 1.45724356174469, 0.29098185896873474, -0.700702965259552, -4.469350814819336, 2.6330535411834717, -0.898193359375, -0.4130859375, -0.385498046875, 0, 
724, 1258389494, -0.23456509411334991, -0.6796329617500305, 0.18152408301830292, -0.6709155440330505, 1, 0.000026076100766658783, -0.00017697922885417938, 0.00015183258801698685, 0.07170391082763672, 0.011729955673217773, -0.0001475214958190918, 8.605040550231934, 1.4062358140945435, -0.019391758367419243, 0.35858649015426636, -2.433736562728882, 2.0879316329956055, -0.897216796875, -0.4130859375, -0.387939453125, 0, 
725, 1258397827, -0.2345764935016632, -0.6796566247940063, 0.18155227601528168, -0.6708800792694092, 1, -0.000017622485756874084, -0.000027155503630638123, 0.00005368981510400772, 0.0690087080001831, 0.011074364185333252, 0.0010207295417785645, 8.281375885009766, 1.3289767503738403, 0.12249243259429932, -0.24233628809452057, -0.37342992424964905, 0.7383174896240234, -0.898193359375, -0.41259765625, -0.387939453125, 0, 
726, 1258406160, -0.234544038772583, -0.679652988910675, 0.18159033358097076, -0.6708847284317017, 1, -8.177012205123901e-7, 0.000013961456716060638, 0.00007663946598768234, 0.0685165524482727, 0.011258363723754883, 0.00231093168258667, 8.222314834594727, 1.351057529449463, 0.2773228883743286, -0.01124464813619852, 0.19199149310588837, 1.053910493850708, -0.898193359375, -0.412109375, -0.384033203125, 0, 
727, 1258414493, -0.2344755381345749, -0.6796032786369324, 0.1816329061985016, -0.6709474921226501, 1, 0.00002860184758901596, 0.00007180776447057724, 0.00015578698366880417, 0.0699496865272522, 0.008594632148742676, 0.0028803348541259766, 8.394430160522461, 1.0301181077957153, 0.34621909260749817, 0.39331936836242676, 0.9874671697616577, 2.142310619354248, -0.898681640625, -0.4091796875, -0.385009765625, 0, 
728, 1258422826, -0.2343733310699463, -0.6794093251228333, 0.18168286979198456, -0.6711660623550415, 0.9999999403953552, 0.00003280956298112869, 0.0002716435119509697, 0.00021632108837366104, 0.07146161794662476, 0.009213268756866455, 0.0030202865600585938, 8.575874328613281, 1.1038304567337036, 0.3646959960460663, 0.45118197798728943, 3.735516309738159, 2.974747896194458, -0.896728515625, -0.40966796875, -0.386962890625, 0, 
729, 1258431159, -0.23429349064826965, -0.6790909171104431, 0.18180443346500397, -0.6714831590652466, 0.9999998807907104, -0.000032791867852211, 0.0004040570929646492, 0.0003272583708167076, 0.06803607940673828, 0.011937320232391357, 0.005613803863525391, 8.164848327636719, 1.4298733472824097, 0.676989734172821, -0.4509385824203491, 5.556406497955322, 4.500306129455566, -0.898193359375, -0.40673828125, -0.385498046875, 0, 
730, 1258439492, -0.23419737815856934, -0.6787590980529785, 0.18221893906593323, -0.6717398762702942, 0.9999998211860657, -0.00024145841598510742, 0.00030574481934309006, 0.0004938086494803429, 0.06852561235427856, 0.013836503028869629, 0.007726848125457764, 8.22392749786377, 1.6562505960464478, 0.9301133155822754, -3.3204245567321777, 4.204461574554443, 6.790628910064697, -0.900634765625, -0.40673828125, -0.386962890625, 0, 
731, 1258447825, -0.23405863344669342, -0.6783902049064636, 0.1828889697790146, -0.6719787120819092, 0.9999996423721313, -0.000386655330657959, 0.0002448996528983116, 0.0007322458550333977, 0.07028466463088989, 0.013154923915863037, 0.00640946626663208, 8.43546199798584, 1.5721852779388428, 0.7718396782875061, -5.317105770111084, 3.3677470684051514, 10.06950855255127, -0.898681640625, -0.408203125, -0.386962890625, 0, 
732, 1258456158, -0.2338281273841858, -0.6780151724815369, 0.18383623659610748, -0.6721790432929993, 0.9999994039535522, -0.0005286280065774918, 0.0001472877338528633, 0.0009404430165886879, 0.06865048408508301, 0.011660575866699219, 0.006791889667510986, 8.239585876464844, 1.391100525856018, 0.817021369934082, -7.269449710845947, 2.025433301925659, 12.932541847229004, -0.8994140625, -0.40478515625, -0.387939453125, 0, 
733, 1258464491, -0.23353099822998047, -0.6776720285415649, 0.18501016497612, -0.6723061800003052, 0.9999991655349731, -0.0006314460188150406, 0.0000030761584639549255, 0.0011532949283719063, 0.0687096118927002, 0.009321451187133789, 0.004684031009674072, 8.2467679977417, 1.108755350112915, 0.5628360509872437, -8.683356285095215, 0.04230191558599472, 15.859582901000977, -0.904296875, -0.40673828125, -0.389404296875, 0, 
734, 1258472824, -0.23299755156040192, -0.6773698925971985, 0.18634133040905, -0.6724281311035156, 0.9999988675117493, -0.0005787201225757599, -0.00010050088167190552, 0.0013725096359848976, 0.07187873125076294, 0.006822407245635986, 0.0014898180961608887, 8.626934051513672, 0.8067446351051331, 0.17838911712169647, -7.958294868469238, -1.3820421695709229, 18.874126434326172, -0.900390625, -0.39990234375, -0.388427734375, 0, 
735, 1258481157, -0.2324516922235489, -0.6769148111343384, 0.18764935433864594, -0.6727113723754883, 0.9999987483024597, -0.0005493853241205215, 0.00010513234883546829, 0.0014710398390889168, 0.07202672958374023, 0.003067195415496826, -0.001282036304473877, 8.64410400390625, 0.3554637134075165, -0.15274327993392944, -7.554896354675293, 1.4457318782806396, 20.229066848754883, -0.90185546875, -0.39794921875, -0.388427734375, 0, 
736, 1258489490, -0.2316885143518448, -0.6763810515403748, 0.18887630105018616, -0.6731681227684021, 0.9999986886978149, -0.0003445073962211609, 0.00026309024542570114, 0.0015777861699461937, 0.06993180513381958, 0.00042241811752319336, -0.002348661422729492, 8.39229965209961, 0.037523914128541946, -0.2796226143836975, -4.7375078201293945, 3.6178970336914062, 21.69699478149414, -0.90478515625, -0.3974609375, -0.39453125, 0, 
737, 1258497823, -0.23075945675373077, -0.6758134961128235, 0.18992845714092255, -0.6737610697746277, 0.9999985694885254, -0.00008575618267059326, 0.0003780880942940712, 0.0016483189538121223, 0.07048952579498291, -0.0020638704299926758, -0.0024825334548950195, 8.458778381347656, -0.26156172156333923, -0.2947462499141693, -1.1792800426483154, 5.199295520782471, 22.66693115234375, -0.90283203125, -0.3935546875, -0.390380859375, 0, 
738, 1258506156, -0.22956612706184387, -0.6752277612686157, 0.19080713391304016, -0.6745071411132812, 0.9999983906745911, 0.00022376049309968948, 0.0004927134141325951, 0.0017088120803236961, 0.06844663619995117, -0.0037670135498046875, -0.000022470951080322266, 8.213143348693848, -0.46612080931663513, 0.0014600951690226793, 3.077052354812622, 6.775570869445801, 23.49880599975586, -0.9033203125, -0.388671875, -0.39453125, 0, 
739, 1258514489, -0.22818723320960999, -0.6746553182601929, 0.19150105118751526, -0.6753507256507874, 0.999998152256012, 0.0005053887143731117, 0.0005484679713845253, 0.001765427179634571, 0.06705129146575928, -0.004782974720001221, 0.0014671087265014648, 8.04535961151123, -0.5880669951438904, 0.18075619637966156, 6.949876308441162, 7.542282581329346, 24.27735137939453, -0.91162109375, -0.3896484375, -0.387939453125, 0, 
740, 1258522822, -0.22659526765346527, -0.6740767955780029, 0.19207753241062164, -0.6763001680374146, 0.9999978542327881, 0.0007372582331299782, 0.0006181327626109123, 0.0018191831186413765, 0.068203866481781, -0.003942906856536865, -0.00016164779663085938, 8.18393325805664, -0.48805898427963257, -0.013991205021739006, 10.13844108581543, 8.50028133392334, 25.016582489013672, -0.90869140625, -0.3876953125, -0.39501953125, 0, 
741, 1258531155, -0.2248058319091797, -0.6734930872917175, 0.1924554705619812, -0.677370548248291, 0.9999974370002747, 0.0010353000834584236, 0.0007015084847807884, 0.0018797395750880241, 0.06764990091323853, -0.0019335150718688965, -0.0001538395881652832, 8.117878913879395, -0.24730469286441803, -0.01252245344221592, 14.236978530883789, 9.646827697753906, 25.849328994750977, -0.912109375, -0.38427734375, -0.393310546875, 0, 
742, 1258539488, -0.22274762392044067, -0.6729744672775269, 0.19274847209453583, -0.6784816980361938, 0.9999970197677612, 0.001287735067307949, 0.0006608525291085243, 0.0019688913598656654, 0.06548035144805908, -0.0004795193672180176, 0.0025821924209594727, 7.857628345489502, -0.07258683443069458, 0.3151388168334961, 17.70835304260254, 9.087745666503906, 27.07530975341797, -0.9111328125, -0.3798828125, -0.392333984375, 0, 
743, 1258547821, -0.22052915394306183, -0.6725325584411621, 0.19301959872245789, -0.679566502571106, 0.9999966621398926, 0.001430080272257328, 0.00055647362023592, 0.002071545459330082, 0.06662458181381226, 0.0022959113121032715, 0.003225982189178467, 7.995613098144531, 0.2595134675502777, 0.39119595289230347, 19.66582489013672, 7.652376651763916, 28.486968994140625, -0.91650390625, -0.378173828125, -0.393310546875, 0, 
744, 1258556154, -0.21820586919784546, -0.6721023321151733, 0.19328173995018005, -0.6806667447090149, 0.9999964833259583, 0.0015045823529362679, 0.0005493825301527977, 0.002108677290380001, 0.06725645065307617, 0.004226267337799072, 0.003593266010284424, 8.071914672851562, 0.49082300066947937, 0.4348839223384857, 20.690345764160156, 7.554863929748535, 28.997589111328125, -0.9169921875, -0.377197265625, -0.391357421875, 0, 
745, 1258564487, -0.21585631370544434, -0.6717346906661987, 0.1936040222644806, -0.6816865801811218, 0.9999964833259583, 0.0014864550903439522, 0.000425153411924839, 0.0021657152101397514, 0.06712943315505981, 0.005953967571258545, 0.0048272013664245605, 8.057145118713379, 0.6978905200958252, 0.5816631317138672, 20.44106674194336, 5.84652042388916, 29.78194808959961, -0.91796875, -0.372314453125, -0.394775390625, 0, 
746, 1258572820, -0.21348468959331512, -0.6714251041412354, 0.19401229918003082, -0.6826218366622925, 0.999996542930603, 0.001431700773537159, 0.00031531695276498795, 0.002180689014494419, 0.0680198073387146, 0.0074196457862854, 0.003390073776245117, 8.164506912231445, 0.8731507062911987, 0.4081343710422516, 19.6881103515625, 4.3360981941223145, 29.987863540649414, -0.9189453125, -0.369384765625, -0.395263671875, 0, 
747, 1258581153, -0.21117311716079712, -0.6711910367012024, 0.194515660405159, -0.6834272146224976, 0.9999967217445374, 0.001324889250099659, 0.00015807244926691055, 0.0021907566115260124, 0.06899607181549072, 0.007762789726257324, 0.002346336841583252, 8.281844139099121, 0.9137866497039795, 0.2816545367240906, 18.219282150268555, 2.173741340637207, 30.126300811767578, -0.92041015625, -0.366455078125, -0.389892578125, 0, 
748, 1258589486, -0.20896679162979126, -0.6709813475608826, 0.19513428211212158, -0.6841346025466919, 0.9999970197677612, 0.0011541610583662987, 0.0000815046951174736, 0.0021411487832665443, 0.07068955898284912, 0.007989168167114258, 0.0013210177421569824, 8.485115051269531, 0.940733790397644, 0.1581200510263443, 15.871506690979004, 1.1208159923553467, 29.44411849975586, -0.92333984375, -0.364501953125, -0.391845703125, 0, 
749, 1258597819, -0.20688840746879578, -0.6707847714424133, 0.19577835500240326, -0.6847748160362244, 0.9999972581863403, 0.0010476401075720787, 0.000037542544305324554, 0.0020859232172369957, 0.07323795557022095, 0.007896721363067627, -0.0005074143409729004, 8.790873527526855, 0.9292332530021667, -0.061548784375190735, 14.406672477722168, 0.5162680745124817, 28.684673309326172, -0.92578125, -0.360107421875, -0.389404296875, 0, 
750, 1258606152, -0.20480361580848694, -0.6705725193023682, 0.19641834497451782, -0.6854256987571716, 0.9999973177909851, 0.0010465765371918678, 0.0000645732507109642, 0.00206103827804327, 0.07693278789520264, 0.007895350456237793, -0.0026848316192626953, 9.234260559082031, 0.928159236907959, -0.3225802481174469, 14.392050743103027, 0.8879822492599487, 28.342470169067383, -0.9306640625, -0.355712890625, -0.389892578125, 0, 
751, 1258614485, -0.2028859257698059, -0.6702008843421936, 0.1970033496618271, -0.6861910223960876, 0.9999974966049194, 0.0009715249761939049, 0.00028641242533922195, 0.001998734660446644, 0.07842588424682617, 0.007778048515319824, -0.0011815428733825684, 9.413370132446289, 0.9145065546035767, -0.14000067114830017, 13.35997200012207, 3.9386141300201416, 27.485694885253906, -0.92724609375, -0.356689453125, -0.387451171875, 0, 
752, 1258622818, -0.20111384987831116, -0.6696515083312988, 0.19763688743114471, -0.6870661973953247, 0.999997615814209, 0.0008166367188096046, 0.0005091587081551552, 0.0019544409587979317, 0.07706886529922485, 0.008961856365203857, 0.0017498135566711426, 9.250612258911133, 1.057588815689087, 0.21381591260433197, 11.23001766204834, 7.0017194747924805, 26.8765869140625, -0.9287109375, -0.353271484375, -0.386962890625, 0, 
753, 1258631151, -0.19961903989315033, -0.6690031290054321, 0.19832412898540497, -0.687935471534729, 0.9999979138374329, 0.0005865273997187614, 0.0006109373643994331, 0.0018548732623457909, 0.07378631830215454, 0.010284662246704102, 0.0030811429023742676, 8.856770515441895, 1.2179445028305054, 0.3744580149650574, 8.065658569335938, 8.401333808898926, 25.507375717163086, -0.931640625, -0.351318359375, -0.388916015625, 0, 
754, 1258639484, -0.1982729434967041, -0.6683581471443176, 0.19911904633045197, -0.6887215971946716, 0.9999982118606567, 0.0003836369141936302, 0.0005672583356499672, 0.00177075807005167, 0.07173746824264526, 0.010285794734954834, 0.0027617812156677246, 8.610830307006836, 1.2192206382751465, 0.3358410894870758, 5.275600433349609, 7.800678730010986, 24.35066032409668, -0.931884765625, -0.347900390625, -0.387939453125, 0, 
755, 1258647817, -0.1972028911113739, -0.6677228808403015, 0.2000003159046173, -0.689389169216156, 0.9999985098838806, 0.00013057608157396317, 0.0005134167149662971, 0.0016530407592654228, 0.07165294885635376, 0.010911822319030762, 0.0009731054306030273, 8.600790977478027, 1.2952861785888672, 0.12101757526397705, 1.7956228256225586, 7.060273170471191, 22.731863021850586, -0.934326171875, -0.345458984375, -0.388427734375, 0, 
756, 1258656150, -0.196381077170372, -0.667043924331665, 0.2009602040052414, -0.6900017857551575, 0.9999987483024597, -0.00012161582708358765, 0.0005468437448143959, 0.0014922833070158958, 0.07108139991760254, 0.0102958083152771, 0.001447141170501709, 8.531845092773438, 1.2228326797485352, 0.17846429347991943, -1.6724053621292114, 7.51994514465332, 20.52120018005371, -0.933837890625, -0.341064453125, -0.389404296875, 0, 
757, 1258664483, -0.19580945372581482, -0.666408896446228, 0.20198258757591248, -0.690479040145874, 0.999998927116394, -0.00033882446587085724, 0.00045944657176733017, 0.0013698330149054527, 0.07057958841323853, 0.00964421033859253, 0.0033223628997802734, 8.471288681030273, 1.1455968618392944, 0.40298786759376526, -4.659358501434326, 6.318099021911621, 18.83731460571289, -0.938720703125, -0.33740234375, -0.392822265625, 0, 
758, 1258672816, -0.1953137069940567, -0.6658872961997986, 0.2031872570514679, -0.6907691955566406, 0.999998927116394, -0.000542106106877327, 0.0002406863495707512, 0.001335502602159977, 0.07132989168167114, 0.009679853916168213, 0.004609286785125732, 8.561348915100098, 1.1498388051986694, 0.5558372735977173, -7.4547953605651855, 3.3098087310791016, 18.365219116210938, -0.935791015625, -0.335693359375, -0.390380859375, 0, 
759, 1258681149, -0.19488313794136047, -0.6654758453369141, 0.2045043408870697, -0.6908987164497375, 0.9999988675117493, -0.00066392682492733, 0.00004498381167650223, 0.0013591991737484932, 0.07188743352890015, 0.009141266345977783, 0.004429757595062256, 8.628301620483398, 1.0848925113677979, 0.5327081680297852, -9.130017280578613, 0.6185967922210693, 18.691085815429688, -0.937255859375, -0.333740234375, -0.392333984375, 0, 
760, 1258689482, -0.19444388151168823, -0.6651184558868408, 0.2059849351644516, -0.6909267902374268, 0.9999986886978149, -0.0007915925234556198, -0.00008934549987316132, 0.0013957349583506584, 0.07165241241455078, 0.0076926350593566895, 0.004116714000701904, 8.59996509552002, 0.910711407661438, 0.4939844310283661, -10.885618209838867, -1.2286385297775269, 19.193511962890625, -0.939208984375, -0.33349609375, -0.396728515625, 0, 
761, 1258697815, -0.19408535957336426, -0.6648060083389282, 0.20754994451999664, -0.6908597946166992, 0.9999985694885254, -0.0008956044912338257, -0.00018831901252269745, 0.0014203311875462532, 0.07190483808517456, 0.005816400051116943, 0.003591299057006836, 8.629993438720703, 0.6853266954421997, 0.4299671947956085, -12.315943717956543, -2.589677095413208, 19.53174591064453, -0.936279296875, -0.330810546875, -0.393798828125, 0, 
762, 1258706148, -0.19369962811470032, -0.6645109057426453, 0.20921474695205688, -0.6907498240470886, 0.9999984502792358, -0.0009709261357784271, -0.0002490580081939697, 0.0014416119083762169, 0.07378357648849487, 0.0036490559577941895, 0.002281486988067627, 8.855072975158691, 0.4249304234981537, 0.272012859582901, -13.351733207702637, -3.4249320030212402, 19.824386596679688, -0.942138671875, -0.328125, -0.392822265625, 0, 
763, 1258714481, -0.1934630572795868, -0.6641124486923218, 0.21088728308677673, -0.690690815448761, 0.9999983906745911, -0.0010868329554796219, -0.00011803023517131805, 0.001428232528269291, 0.07746517658233643, 0.000870048999786377, 0.002279937267303467, 9.296367645263672, 0.09077932685613632, 0.2726105749607086, -14.945633888244629, -1.6230982542037964, 19.640403747558594, -0.944580078125, -0.32177734375, -0.394287109375, 0, 
764, 1258722814, -0.19329407811164856, -0.6635816097259521, 0.21258512139320374, -0.690727949142456, 0.9999983906745911, -0.0011524520814418793, 0.00005043204873800278, 0.0013918904587626457, 0.07960450649261475, 0.000498652458190918, 0.002286970615386963, 9.552986145019531, 0.046185024082660675, 0.27499502897262573, -15.84799575805664, 0.6935185194015503, 19.140642166137695, -0.944091796875, -0.32421875, -0.394287109375, 0, 
765, 1258731147, -0.19323235750198364, -0.6629619598388672, 0.21416530013084412, -0.6908518671989441, 0.9999984502792358, -0.0011517032980918884, 0.00021171104162931442, 0.0013288920745253563, 0.08059048652648926, 0.0026349425315856934, 0.0036656856536865234, 9.671564102172852, 0.30287981033325195, 0.44230011105537415, -15.837700843811035, 2.911353826522827, 18.27431869506836, -0.944580078125, -0.318359375, -0.397705078125, 0, 
766, 1258739480, -0.19317898154258728, -0.6623054146766663, 0.21582263708114624, -0.690980851650238, 0.9999983906745911, -0.0012059267610311508, 0.00023075472563505173, 0.0013297563418745995, 0.080971360206604, 0.004845023155212402, 0.005446493625640869, 9.717567443847656, 0.5677047371864319, 0.6565455198287964, -16.583354949951172, 3.1732337474823, 18.286203384399414, -0.947509765625, -0.3154296875, -0.397705078125, 0, 
767, 1258747813, -0.1932520568370819, -0.661647617816925, 0.2175101935863495, -0.6910614371299744, 0.9999982714653015, -0.0013049542903900146, 0.00021585170179605484, 0.0013100514188408852, 0.08140319585800171, 0.006305873394012451, 0.0065749287605285645, 9.769588470458984, 0.7429407238960266, 0.7921056151390076, -17.94513702392578, 2.968294620513916, 18.01523208618164, -0.94580078125, -0.31298828125, -0.399658203125, 0, 
768, 1258756146, -0.19340674579143524, -0.6610500812530518, 0.21935540437698364, -0.6910067796707153, 0.9999980926513672, -0.001501966267824173, 0.00007718708366155624, 0.0012620249763131142, 0.07918113470077515, 0.00913161039352417, 0.0054528117179870605, 9.503439903259277, 1.0828943252563477, 0.6567304134368896, -20.654361724853516, 1.0614418983459473, 17.35479736328125, -0.947265625, -0.3095703125, -0.402099609375, 0, 
769, 1258764479, -0.19380415976047516, -0.6604976654052734, 0.22123262286186218, -0.6908251643180847, 0.9999979138374329, -0.0016911886632442474, 0.0000032121315598487854, 0.0011405861005187035, 0.08075791597366333, 0.010118961334228516, 0.005097568035125732, 9.692719459533691, 1.202201008796692, 0.6138161420822144, -23.256458282470703, 0.0441717728972435, 15.684821128845215, -0.94970703125, -0.30810546875, -0.402587890625, 0, 
770, 1258772812, -0.1942870318889618, -0.6600163578987122, 0.22315551340579987, -0.6905308961868286, 0.9999978542327881, -0.0018027890473604202, -0.00010438449680805206, 0.0010147104039788246, 0.08031517267227173, 0.010995566844940186, 0.006965219974517822, 9.639628410339355, 1.3082300424575806, 0.8372256755828857, -24.791135787963867, -1.4354482889175415, 13.953837394714355, -0.95068359375, -0.306640625, -0.403564453125, 0, 
771, 1258781145, -0.1950301080942154, -0.659588098526001, 0.22520333528518677, -0.6900656819343567, 0.9999973773956299, -0.002071969211101532, -0.00022674165666103363, 0.0009367512539029121, 0.08254814147949219, 0.009764432907104492, 0.0049353837966918945, 9.90739917755127, 1.1612844467163086, 0.5924437046051025, -28.492786407470703, -3.118049144744873, 12.881780624389648, -0.9521484375, -0.30224609375, -0.4052734375, 0, 
772, 1258789478, -0.19570738077163696, -0.6592126488685608, 0.22719834744930267, -0.6895787119865417, 0.9999975562095642, -0.002003338187932968, -0.000275295227766037, 0.0008669877424836159, 0.083027184009552, 0.007080078125, 0.0041214823722839355, 9.964527130126953, 0.8400400280952454, 0.49355292320251465, -27.549007415771484, -3.785736083984375, 11.922425270080566, -0.95166015625, -0.30078125, -0.40478515625, 0, 
773, 1258797811, -0.19637514650821686, -0.6589102149009705, 0.2290486842393875, -0.6890655755996704, 0.9999979138374329, -0.0018301848322153091, -0.0003272630274295807, 0.0008293772116303444, 0.08540278673171997, 0.0041890740394592285, 0.0044463276863098145, 10.249333381652832, 0.493238240480423, 0.5311421155929565, -25.167875289916992, -4.500373363494873, 11.405220985412598, -0.95263671875, -0.29736328125, -0.40869140625, 0, 
774, 1258806144, -0.19684574007987976, -0.6586053371429443, 0.23077844083309174, -0.6886454820632935, 0.9999982714653015, -0.0016551539301872253, -0.00027520395815372467, 0.0008318806067109108, 0.08698493242263794, 0.00046837329864501953, 0.0041838884353637695, 10.43879222869873, 0.046668387949466705, 0.499294251203537, -22.76092529296875, -3.784479856491089, 11.439643859863281, -0.95263671875, -0.29638671875, -0.40966796875, 0, 
775, 1258814477, -0.19707047939300537, -0.6582733988761902, 0.2321329563856125, -0.6884433627128601, 0.9999986886978149, -0.00138152576982975, -0.00008779019117355347, 0.0008583655580878258, 0.0885511040687561, -0.004422664642333984, 0.004487395286560059, 10.626145362854004, -0.5406029224395752, 0.5368388295173645, -18.99810791015625, -1.2072504758834839, 11.803850173950195, -0.955078125, -0.2939453125, -0.4091796875, 0, 
776, 1258822810, -0.19731685519218445, -0.6577520370483398, 0.23338697850704193, -0.6884470582008362, 0.9999990463256836, -0.001124294474720955, 0.0001948690041899681, 0.000806695781648159, 0.08848345279693604, -0.007944941520690918, 0.005535542964935303, 10.617530822753906, -0.9628114104270935, 0.6652930378913879, -15.460782051086426, 2.6797494888305664, 11.093310356140137, -0.955078125, -0.291015625, -0.408203125, 0, 
777, 1258831143, -0.19772836565971375, -0.6570857763290405, 0.23443137109279633, -0.6886104941368103, 0.9999991059303284, -0.0010315999388694763, 0.0004681358113884926, 0.0006957510486245155, 0.08566594123840332, -0.00834965705871582, 0.006487369537353516, 10.279265403747559, -1.0099148750305176, 0.7822717428207397, -14.186087608337402, 6.437588214874268, 9.567647933959961, -0.95556640625, -0.2919921875, -0.40966796875, 0, 
778, 1258839476, -0.19816835224628448, -0.656291663646698, 0.23533658683300018, -0.6889325380325317, 0.9999991059303284, -0.0009910780936479568, 0.0007060365751385689, 0.0005709389224648476, 0.08246767520904541, -0.006638467311859131, 0.006112933158874512, 9.89553451538086, -0.8030669093132019, 0.7398152351379395, -13.628851890563965, 9.709092140197754, 7.851290702819824, -0.953369140625, -0.28955078125, -0.41015625, 0, 
779, 1258847809, -0.19896700978279114, -0.6554034352302551, 0.23627951741218567, -0.6892247796058655, 0.9999989867210388, -0.0010759849101305008, 0.0008018510416150093, 0.00045099761337041855, 0.0785784125328064, -0.0027147531509399414, 0.007707655429840088, 9.428898811340332, -0.33101457357406616, 0.9321379065513611, -14.796452522277832, 11.026689529418945, 6.201913356781006, -0.955322265625, -0.28369140625, -0.4140625, 0, 
780, 1258856142, -0.19971314072608948, -0.6546139717102051, 0.23719006776809692, -0.6894466876983643, 0.999998927116394, -0.001218339428305626, 0.0007081823423504829, 0.00034253206104040146, 0.0758163332939148, 0.0022044777870178223, 0.009525477886199951, 9.097599029541016, 0.26000866293907166, 1.1499077081680298, -16.754045486450195, 9.738598823547363, 4.710343837738037, -0.955322265625, -0.287109375, -0.41455078125, 0, 
781, 1258864475, -0.20074433088302612, -0.6538736820220947, 0.23817385733127594, -0.6895105242729187, 0.9999988675117493, -0.0013774726539850235, 0.0006033135578036308, 0.0002296091988682747, 0.07488000392913818, 0.0072266459465026855, 0.009791672229766846, 8.985444068908691, 0.8635302186012268, 1.1816914081573486, -18.94237518310547, 8.296493530273438, 3.1574811935424805, -0.954833984375, -0.2841796875, -0.41845703125, 0, 
782, 1258872808, -0.20183806121349335, -0.6532191634178162, 0.2392663210630417, -0.6894332766532898, 0.9999985694885254, -0.0016150344163179398, 0.00046546850353479385, 0.0001300601288676262, 0.07423031330108643, 0.010214924812316895, 0.009530067443847656, 8.907620429992676, 1.2228420972824097, 1.1497551202774048, -22.209217071533203, 6.4009108543396, 1.788527488708496, -0.954833984375, -0.28662109375, -0.42236328125, 0, 
783, 1258881141, -0.20326384902000427, -0.652677059173584, 0.240645632147789, -0.689047634601593, 0.9999980926513672, -0.0019326675683259964, 0.0001810779795050621, 0.00008464138954877853, 0.07236069440841675, 0.012824654579162598, 0.008772790431976318, 8.68356990814209, 1.5362401008605957, 1.0573335886001587, -26.577163696289062, 2.4901020526885986, 1.163949966430664, -0.954833984375, -0.28369140625, -0.42236328125, 0, 
784, 1258889474, -0.2045602649450302, -0.6524560451507568, 0.24237431585788727, -0.6882669925689697, 0.9999973773956299, -0.00226680189371109, -0.00037312693893909454, 0.00015909690409898758, 0.0734439492225647, 0.014184772968292236, 0.008169591426849365, 8.814265251159668, 1.6986147165298462, 0.9809578061103821, -31.17203712463379, -5.131073474884033, 2.18782901763916, -0.952392578125, -0.28173828125, -0.42431640625, 0, 
785, 1258897807, -0.2060428410768509, -0.6524792909622192, 0.2445768415927887, -0.68702232837677, 0.9999964833259583, -0.002453763037919998, -0.0009404607117176056, 0.00029118452221155167, 0.07671719789505005, 0.014488637447357178, 0.004164516925811768, 9.20740795135498, 1.7347949743270874, 0.4953581690788269, -33.743045806884766, -12.932794570922852, 4.004238605499268, -0.953857421875, -0.2822265625, -0.427734375, 0, 
786, 1258906140, -0.20699092745780945, -0.6528440117835999, 0.24661853909492493, -0.6856597065925598, 0.9999964833259583, -0.0022760462015867233, -0.00130489282310009, 0.00034062284976243973, 0.08069318532943726, 0.011737525463104248, -0.0039014220237731934, 9.68343448638916, 1.4063323736190796, -0.4776269793510437, -31.29916763305664, -17.94430160522461, 4.684092998504639, -0.956298828125, -0.279296875, -0.4248046875, 0, 
787, 1258914473, -0.208003968000412, -0.6532842516899109, 0.24859833717346191, -0.6842175722122192, 0.9999969601631165, -0.0019901376217603683, -0.001422680914402008, 0.0003281841054558754, 0.08543044328689575, 0.00475078821182251, -0.00985419750213623, 10.250564575195312, 0.5691171884536743, -1.1959737539291382, -27.367481231689453, -19.564071655273438, 4.513040542602539, -0.956787109375, -0.2783203125, -0.421875, 0, 
788, 1258922806, -0.20839853584766388, -0.6537649035453796, 0.2501010298728943, -0.6830899715423584, 0.9999980926513672, -0.0014625992625951767, -0.0012566056102514267, 0.00038752052932977676, 0.09182107448577881, -0.004741072654724121, -0.010551512241363525, 11.0171480178833, -0.5713652968406677, -1.2809333801269531, -20.113000869750977, -17.280271530151367, 5.329007148742676, -0.956787109375, -0.27734375, -0.42333984375, 0, 
789, 1258931139, -0.2082940638065338, -0.6541604399681091, 0.25095197558403015, -0.6824304461479187, 0.9999990463256836, -0.0009463448077440262, -0.0008607599884271622, 0.0004812302067875862, 0.09627854824066162, -0.013294219970703125, -0.007568001747131348, 11.552326202392578, -1.6000912189483643, -0.9197105169296265, -13.013699531555176, -11.836776733398438, 6.617657661437988, -0.960205078125, -0.275634765625, -0.41796875, 0, 
790, 1258939472, -0.20809505879878998, -0.6541003584861755, 0.2515881061553955, -0.6823144555091858, 0.9999997615814209, -0.0003415830433368683, -0.0001939833164215088, 0.000572999007999897, 0.09706622362136841, -0.01769036054611206, -0.004955708980560303, 11.647098541259766, -2.129321575164795, -0.597658097743988, -4.697292804718018, -2.667569398880005, 7.8796186447143555, -0.959228515625, -0.2734375, -0.4189453125, 0, 
791, 1258947805, -0.2077181041240692, -0.6537187099456787, 0.251614511013031, -0.6827852725982666, 0.9999997019767761, 0.00002194102853536606, 0.0005068043246865273, 0.0005639782175421715, 0.09310483932495117, -0.01863759756088257, 0.00023120641708374023, 11.171769142150879, -2.2428009510040283, 0.033366501331329346, 0.301722913980484, 6.969339370727539, 7.755568027496338, -0.958740234375, -0.275390625, -0.4189453125, 0, 
792, 1258956138, -0.20754437148571014, -0.6529243588447571, 0.25175416469573975, -0.6835463047027588, 0.9999993443489075, 0.000048347748816013336, 0.000990639440715313, 0.0005980459973216057, 0.08556473255157471, -0.017957091331481934, 0.0068503618240356445, 10.266071319580078, -2.161036252975464, 0.8323498368263245, 0.6648560166358948, 13.622817993164062, 8.224054336547852, -0.957275390625, -0.271484375, -0.41943359375, 0, 
793, 1258964471, -0.20765209197998047, -0.6519808173179626, 0.2521839737892151, -0.6842554211616516, 0.9999991655349731, -0.0002975389361381531, 0.00105386134237051, 0.0007070219144225121, 0.07747024297714233, -0.012373924255371094, 0.01223057508468628, 9.294198989868164, -1.4919393062591553, 1.477080225944519, -4.09161901473999, 14.492218971252441, 9.722640991210938, -0.9599609375, -0.272216796875, -0.42578125, 0, 
794, 1258972804, -0.20773595571517944, -0.6510863900184631, 0.2529085874557495, -0.6848140358924866, 0.9999991655349731, -0.0005920026451349258, 0.0008705044165253639, 0.0007869014516472816, 0.0739937424659729, -0.006785452365875244, 0.010617673397064209, 8.877848625183105, -0.822034478187561, 1.2814216613769531, -8.140949249267578, 11.970778465270996, 10.8211088180542, -0.95751953125, -0.2685546875, -0.42529296875, 0, 
795, 1258981137, -0.20819805562496185, -0.6501619815826416, 0.25390392541885376, -0.6851834654808044, 0.999998927116394, -0.0009991172701120377, 0.0007876316085457802, 0.0007542865350842476, 0.0722203254699707, -0.002868950366973877, 0.005070924758911133, 8.666047096252441, -0.3513958156108856, 0.61497962474823, -13.739402770996094, 10.831149101257324, 10.372602462768555, -0.95947265625, -0.267822265625, -0.42724609375, 0, 
796, 1258989470, -0.20897233486175537, -0.6491753458976746, 0.255024254322052, -0.6854671239852905, 0.9999985098838806, -0.0014009401202201843, 0.0008472865447402, 0.0005379440262913704, 0.07055151462554932, 0.0026594996452331543, 0.0012626051902770996, 8.466561317443848, 0.3143655061721802, 0.1591634452342987, -19.265090942382812, 11.651498794555664, 7.397561073303223, -0.95947265625, -0.265869140625, -0.4267578125, 0, 
797, 1258997803, -0.21037398278713226, -0.6480847597122192, 0.2561614513397217, -0.6856462955474854, 0.9999978542327881, -0.001824934035539627, 0.0009888773784041405, 0.00020199362188577652, 0.07008826732635498, 0.009527266025543213, 0.0006459355354309082, 8.411079406738281, 1.1414704322814941, 0.08792319893836975, -25.095666885375977, 13.59859561920166, 2.7777249813079834, -0.95703125, -0.26513671875, -0.43115234375, 0, 
798, 1259006136, -0.21216055750846863, -0.6470287442207336, 0.25732147693634033, -0.6856589317321777, 0.9999971389770508, -0.0021685436367988586, 0.0009694276377558708, -0.00016931630671024323, 0.0705571174621582, 0.01478046178817749, 0.0024576187133789062, 8.46660327911377, 1.7745106220245361, 0.306962788105011, -29.820842742919922, 13.331133842468262, -2.328361749649048, -0.958984375, -0.265869140625, -0.43896484375, 0, 
799, 1259014469, -0.21441489458084106, -0.646094560623169, 0.25851187109947205, -0.6853907704353333, 0.9999964833259583, -0.0024738293141126633, 0.000798041932284832, -0.0004777591675519943, 0.07361435890197754, 0.016101300716400146, 0.0048326849937438965, 8.832690238952637, 1.9350051879882812, 0.5917582511901855, -34.01899337768555, 10.974315643310547, -6.569930553436279, -0.95849609375, -0.264404296875, -0.4375, 0, 
800, 1259022802, -0.21674351394176483, -0.6453676223754883, 0.2598501741886139, -0.6848369240760803, 0.9999960064888, -0.0027171503752470016, 0.0004790453240275383, -0.0006314907222986221, 0.07606399059295654, 0.015157759189605713, 0.0068250298500061035, 9.126500129699707, 1.8225363492965698, 0.8283611536026001, -37.36504364013672, 6.587618350982666, -8.683979034423828, -0.957275390625, -0.262451171875, -0.4453125, 0, 
801, 1259031135, -0.219040185213089, -0.644976019859314, 0.2614184021949768, -0.6838771104812622, 0.9999957084655762, -0.0028847865760326385, -0.00008443184196949005, -0.0005512908101081848, 0.07868999242782593, 0.011397063732147217, 0.007066905498504639, 9.442493438720703, 1.3704617023468018, 0.8512170910835266, -39.670310974121094, -1.1610692739486694, -7.581107139587402, -0.95751953125, -0.263916015625, -0.44287109375, 0, 
802, 1259039468, -0.22101138532161713, -0.6448737382888794, 0.26322081685066223, -0.6826468706130981, 0.9999957084655762, -0.0028442852199077606, -0.0005794055759906769, -0.00039741769433021545, 0.08508563041687012, 0.00416874885559082, 0.004100203514099121, 10.210768699645996, 0.5029324293136597, 0.48755377531051636, -39.11335372924805, -7.967729091644287, -5.46511173248291, -0.95703125, -0.264404296875, -0.443359375, 0, 
803, 1259047801, -0.22285036742687225, -0.6448341608047485, 0.26495951414108276, -0.6814128160476685, 0.9999963641166687, -0.002588938921689987, -0.0006713364273309708, -0.00026516057550907135, 0.09040951728820801, -0.005021154880523682, -0.0006631612777709961, 10.849678039550781, -0.5994771122932434, -0.08840964734554291, -35.60193634033203, -9.231919288635254, -3.6463704109191895, -0.956298828125, -0.263916015625, -0.44873046875, 0, 
804, 1259056134, -0.22424787282943726, -0.6447116732597351, 0.26652297377586365, -0.6804599165916443, 0.9999973773956299, -0.00224260613322258, -0.0004856344312429428, -0.00009304657578468323, 0.09481698274612427, -0.01441645622253418, -0.0033219456672668457, 11.378458976745605, -1.7280840873718262, -0.40805584192276, -30.83930778503418, -6.678225040435791, -1.2795344591140747, -0.955322265625, -0.262939453125, -0.44580078125, 0, 
805, 1259064467, -0.22544309496879578, -0.6444430947303772, 0.2678143382072449, -0.6798121929168701, 0.9999982714653015, -0.0018590688705444336, -0.00019858777523040771, 0.0000700904056429863, 0.09815728664398193, -0.021745026111602783, -0.0022600889205932617, 11.779109954833984, -2.60982346534729, -0.2783842384815216, -25.5650691986084, -2.730888843536377, 0.9638513326644897, -0.954345703125, -0.261962890625, -0.45068359375, 0, 
806, 1259072800, -0.2262987345457077, -0.6440140604972839, 0.2688477635383606, -0.6795264482498169, 0.9999989867210388, -0.0014233458787202835, 0.00012738537043333054, 0.00016595330089330673, 0.10063040256500244, -0.026002466678619385, -0.0014864206314086914, 12.075639724731445, -3.1221585273742676, -0.18126285076141357, -19.573200225830078, 1.7517452239990234, 2.282113552093506, -0.956787109375, -0.259033203125, -0.447265625, 0, 
807, 1259081133, -0.22701819241046906, -0.6434130072593689, 0.2694404423236847, -0.6796211004257202, 0.9999994039535522, -0.0009406339377164841, 0.0005354052409529686, 0.00019576679915189743, 0.10001122951507568, -0.027308762073516846, 0.0011053085327148438, 12.001107215881348, -3.2796823978424072, 0.13601823151111603, -12.935166358947754, 7.36264705657959, 2.6920950412750244, -0.955322265625, -0.255126953125, -0.44873046875, 0, 
808, 1259089466, -0.22750644385814667, -0.6426981091499329, 0.2697525918483734, -0.6800103783607483, 0.999999463558197, -0.0005798377096652985, 0.0008206022903323174, 0.00018128659576177597, 0.09612500667572021, -0.024263441562652588, 0.0048139095306396484, 11.534456253051758, -2.9141592979431152, 0.5854734778404236, -7.973662853240967, 11.284546852111816, 2.4929702281951904, -0.955810546875, -0.256591796875, -0.451171875, 0, 
809, 1259097799, -0.22817353904247284, -0.6419203281402588, 0.26988598704338074, -0.6804683804512024, 0.9999994039535522, -0.0005188770592212677, 0.0009772302582859993, 0.00005950313061475754, 0.09060066938400269, -0.01899200677871704, 0.007463693618774414, 10.871505737304688, -2.2802398204803467, 0.9050757884979248, -7.135358810424805, 13.438421249389648, 0.8182596564292908, -0.954345703125, -0.255615234375, -0.455078125, 0, 
810, 1259106132, -0.22893419861793518, -0.641160249710083, 0.2701161503791809, -0.6808382272720337, 0.9999992847442627, -0.0007146280258893967, 0.0009311093017458916, -0.00004889443516731262, 0.08453953266143799, -0.013302803039550781, 0.0076323747634887695, 10.144376754760742, -1.5965596437454224, 0.9241717457771301, -9.82723617553711, 12.804186820983887, -0.6723737716674805, -0.950927734375, -0.25634765625, -0.45654296875, 0, 
811, 1259114465, -0.22995860874652863, -0.6403912901878357, 0.2704412639141083, -0.6810874342918396, 0.9999991655349731, -0.000944947823882103, 0.000889030285179615, -0.00011757388710975647, 0.0817916989326477, -0.007760822772979736, 0.006677448749542236, 9.814789772033691, -0.9309411644935608, 0.8091792464256287, -12.994489669799805, 12.225536346435547, -1.6168222427368164, -0.958251953125, -0.257568359375, -0.45703125, 0, 
812, 1259122798, -0.23099268972873688, -0.6396245956420898, 0.2708870768547058, -0.681280791759491, 0.9999990463256836, -0.001085897907614708, 0.0008468134328722954, -0.00013546273112297058, 0.07799404859542847, -0.002924978733062744, 0.007166087627410889, 9.358979225158691, -0.3506818115711212, 0.8674808144569397, -14.932770729064941, 11.644989967346191, -1.8628214597702026, -0.953369140625, -0.259033203125, -0.45849609375, 0, 
813, 1259131131, -0.23212970793247223, -0.6389279961585999, 0.27149906754493713, -0.6813041567802429, 0.9999989867210388, -0.001263897866010666, 0.0006581870838999748, -0.00008506327867507935, 0.0746690034866333, 0.0018648505210876465, 0.007338881492614746, 8.960042953491211, 0.22343993186950684, 0.8868469595909119, -17.380542755126953, 9.05108642578125, -1.1697510480880737, -0.951904296875, -0.257080078125, -0.460693359375, 0, 
814, 1259139464, -0.23321415483951569, -0.6382495164871216, 0.27235081791877747, -0.6812297701835632, 0.9999988079071045, -0.0014468207955360413, 0.0005352078005671501, 0.00000400003045797348, 0.07548844814300537, 0.004787445068359375, 0.004107952117919922, 9.05871295928955, 0.5737627744674683, 0.4986637532711029, -19.89601707458496, 7.359932899475098, 0.05500658601522446, -0.9501953125, -0.25439453125, -0.463134765625, 0, 
815, 1259147797, -0.23440809547901154, -0.6375126838684082, 0.2733742892742157, -0.681100070476532, 0.9999985694885254, -0.0016269292682409286, 0.0005056792870163918, 0.00011605676263570786, 0.07707417011260986, 0.006012260913848877, 0.0013607144355773926, 9.24927043914795, 0.7201559543609619, 0.1691516935825348, -22.37278938293457, 6.953871726989746, 1.5959596633911133, -0.951171875, -0.254638671875, -0.464111328125, 0, 
816, 1259156130, -0.2356215864419937, -0.6366579532623291, 0.27467209100723267, -0.6809587478637695, 0.9999980330467224, -0.0018924549221992493, 0.0005432749167084694, 0.00023322086781263351, 0.07914590835571289, 0.004951536655426025, -0.0000470280647277832, 9.498027801513672, 0.5919980406761169, 0.0006442940793931484, -26.024181365966797, 7.470870494842529, 3.2071475982666016, -0.94921875, -0.253173828125, -0.468017578125, 0, 
817, 1259164463, -0.2370293140411377, -0.6356788873672485, 0.2762315273284912, -0.6807540059089661, 0.9999973177909851, -0.0022112764418125153, 0.0005565313622355461, 0.00036318134516477585, 0.07911849021911621, 0.003523409366607666, -0.00043886899948120117, 9.494780540466309, 0.4194876253604889, -0.04644598066806793, -30.408477783203125, 7.65316915512085, 4.994306564331055, -0.953125, -0.247802734375, -0.468505859375, 0, 
818, 1259172796, -0.2384461611509323, -0.6346116662025452, 0.27814534306526184, -0.6804755330085754, 0.999996542930603, -0.0025291796773672104, 0.0005110101774334908, 0.0005127592012286186, 0.07836604118347168, 0.0016576051712036133, -0.0007245540618896484, 9.40444564819336, 0.19431811571121216, -0.08165021240711212, -34.7801513671875, 7.027183532714844, 7.051236152648926, -0.94921875, -0.252197265625, -0.470947265625, 0, 
819, 1259181129, -0.24008134007453918, -0.633453369140625, 0.2803686857223511, -0.680067241191864, 0.9999954700469971, -0.002904089167714119, 0.0004556020721793175, 0.0006341105327010155, 0.0777970552444458, -0.0006409883499145508, -0.0014545917510986328, 9.33604907989502, -0.0823308527469635, -0.17053915560245514, -39.935752868652344, 6.265239238739014, 8.72000789642334, -0.95068359375, -0.247802734375, -0.475830078125, 0, 
820, 1259189462, -0.24183611571788788, -0.6322394609451294, 0.28291893005371094, -0.6795188784599304, 0.9999942779541016, -0.0032868869602680206, 0.00038150604814291, 0.0006627989932894707, 0.07803082466125488, -0.0032965540885925293, -0.002591848373413086, 9.363929748535156, -0.4007870852947235, -0.30876854062080383, -45.199832916259766, 5.246304512023926, 9.114522933959961, -0.951904296875, -0.242919921875, -0.480224609375, 0, 
821, 1259197795, -0.24388477206230164, -0.6309865713119507, 0.2856881320476532, -0.6787922382354736, 0.999993085861206, -0.0036489609628915787, 0.0003046868368983269, 0.000649196095764637, 0.07892793416976929, -0.005806028842926025, -0.003004729747772217, 9.471386909484863, -0.7015846967697144, -0.3602445125579834, -50.17893981933594, 4.189921855926514, 8.927465438842773, -0.947509765625, -0.24169921875, -0.479736328125, 0, 
822, 1259206128, -0.24600337445735931, -0.6296707987785339, 0.28871840238571167, -0.6779668927192688, 0.9999919533729553, -0.0039461273699998856, 0.00026236753910779953, 0.000680769793689251, 0.07999813556671143, -0.008366882801055908, -0.0030860304832458496, 9.599571228027344, -1.0091346502304077, -0.37178748846054077, -54.26545715332031, 3.607966423034668, 9.361654281616211, -0.948974609375, -0.236083984375, -0.482666015625, 0, 
823, 1259214461, -0.2482820302248001, -0.6283147931098938, 0.29194188117980957, -0.6770133376121521, 0.9999908804893494, -0.004193177446722984, 0.00018789898604154587, 0.0007526921108365059, 0.08054137229919434, -0.00957876443862915, -0.0029247403144836426, 9.66455078125, -1.1552950143814087, -0.3539941906929016, -57.66281509399414, 2.5839080810546875, 10.35070514678955, -0.954345703125, -0.232177734375, -0.485107421875, 0, 
824, 1259222794, -0.25058817863464355, -0.6269335150718689, 0.2954055070877075, -0.6759408712387085, 0.9999898076057434, -0.004445673897862434, 0.00009834300726652145, 0.0007842862978577614, 0.0816340446472168, -0.010838091373443604, -0.002656280994415283, 9.795487403869629, -1.3068804740905762, -0.32359346747398376, -61.13505554199219, 1.3523722887039185, 10.785179138183594, -0.952880859375, -0.226806640625, -0.489013671875, 0, 
825, 1259231127, -0.2530583441257477, -0.6255996823310852, 0.298979252576828, -0.6746839880943298, 0.9999889731407166, -0.004634080454707146, -0.000047557055950164795, 0.0007581179961562157, 0.0821148157119751, -0.012537062168121338, -0.0036734938621520996, 9.853008270263672, -1.5099236965179443, -0.4482865035533905, -63.72597122192383, -0.6539850831031799, 10.425326347351074, -0.953369140625, -0.223876953125, -0.490966796875, 0, 
826, 1259239460, -0.2555391788482666, -0.6243482828140259, 0.3025693893432617, -0.6733061671257019, 0.9999887347221375, -0.004698462784290314, -0.00016081519424915314, 0.0006300816312432289, 0.08374422788619995, -0.014791309833526611, -0.004717767238616943, 10.04849910736084, -1.7786846160888672, -0.5761175155639648, -64.61133575439453, -2.2114646434783936, 8.664624214172363, -0.95263671875, -0.218017578125, -0.494873046875, 0, 
827, 1259247793, -0.2582207918167114, -0.623177170753479, 0.30601081252098083, -0.6718111634254456, 0.9999887943267822, -0.004707185551524162, -0.00020739063620567322, 0.0004204334691166878, 0.08347594738006592, -0.01688241958618164, -0.004177391529083252, 10.016556739807129, -2.0278055667877197, -0.5129262208938599, -64.73128509521484, -2.8519508838653564, 5.781628131866455, -0.9541015625, -0.217529296875, -0.498779296875, 0, 
828, 1259256126, -0.26094722747802734, -0.622085690498352, 0.3092971742153168, -0.6702624559402466, 0.9999890923500061, -0.004658227786421776, -0.00022228434681892395, 0.00018298160284757614, 0.08292418718338013, -0.018947601318359375, -0.003587067127227783, 9.950787544250488, -2.2735981941223145, -0.4432709217071533, -64.05802154541016, -3.0567626953125, 2.5162875652313232, -0.95263671875, -0.211669921875, -0.500244140625, 0, 
829, 1259264459, -0.26378777623176575, -0.6211060285568237, 0.3123176693916321, -0.6686565279960632, 0.9999898076057434, -0.004510261118412018, -0.00024539045989513397, -0.00004075467586517334, 0.08145773410797119, -0.019842863082885742, -0.002634584903717041, 9.775336265563965, -2.3793933391571045, -0.3293054699897766, -62.02323532104492, -3.3745076656341553, -0.5604413747787476, -0.955078125, -0.208251953125, -0.501708984375, 0, 
830, 1259272792, -0.266553670167923, -0.6202529668807983, 0.3150632679462433, -0.6670615673065186, 0.9999908208847046, -0.004272500053048134, -0.0002568308264017105, -0.00026567280292510986, 0.08056437969207764, -0.020527005195617676, -0.0009667277336120605, 9.668734550476074, -2.460256338119507, -0.12901337444782257, -58.753623962402344, -3.531829357147217, -3.6534204483032227, -0.9541015625, -0.207763671875, -0.506103515625, 0, 
831, 1259281125, -0.2692486345767975, -0.6195570826530457, 0.3174811899662018, -0.6654776334762573, 0.9999921321868896, -0.003936583176255226, -0.00030629150569438934, -0.0004066098481416702, 0.08075988292694092, -0.020041704177856445, 0.001069188117980957, 9.692588806152344, -2.401646375656128, 0.11586814373731613, -54.134220123291016, -4.2119903564453125, -5.591525554656982, -0.95166015625, -0.205322265625, -0.504150390625, 0, 
832, 1259289458, -0.271719366312027, -0.6189382076263428, 0.3196713328361511, -0.6639991998672485, 0.9999933242797852, -0.0036197733134031296, -0.00028552860021591187, -0.0004561040550470352, 0.07958626747131348, -0.0205690860748291, 0.000522613525390625, 9.551875114440918, -2.4642486572265625, 0.051068633794784546, -49.77755355834961, -3.9264657497406006, -6.2721452713012695, -0.953369140625, -0.206298828125, -0.507568359375, 0, 
833, 1259297791, -0.27406561374664307, -0.6183648109436035, 0.32162874937057495, -0.6626222133636475, 0.9999943375587463, -0.0033179111778736115, -0.00024618953466415405, -0.00044863857328891754, 0.0803147554397583, -0.020477235317230225, -0.0006157755851745605, 9.639238357543945, -2.4527876377105713, -0.08441246300935745, -45.626468658447266, -3.385491371154785, -6.1694817543029785, -0.955322265625, -0.202880859375, -0.509521484375, 0, 
834, 1259306124, -0.27616065740585327, -0.6178252100944519, 0.32341936230659485, -0.6613830327987671, 0.9999953508377075, -0.003023942932486534, -0.0002018660306930542, -0.0004141218960285187, 0.07957619428634644, -0.01872122287750244, 0.00010341405868530273, 9.550457000732422, -2.2427096366882324, 0.0036911703646183014, -41.583927154541016, -2.775972366333008, -5.694820880889893, -0.952392578125, -0.199951171875, -0.51171875, 0, 
835, 1259314457, -0.2780681550502777, -0.6173624992370605, 0.32505765557289124, -0.6602118015289307, 0.9999961853027344, -0.002741105854511261, -0.0002458430826663971, -0.0003404542803764343, 0.07863414287567139, -0.014888286590576172, 0.00007742643356323242, 9.437082290649414, -1.7834724187850952, 0.0020779846236109734, -37.69446563720703, -3.3807241916656494, -4.68177604675293, -0.952880859375, -0.197509765625, -0.51513671875, 0, 
836, 1259322790, -0.27970826625823975, -0.6169309020042419, 0.3265972435474396, -0.6591618061065674, 0.9999968409538269, -0.0024856943637132645, -0.00023435801267623901, -0.0002510659396648407, 0.07867848873138428, -0.012315690517425537, -0.0016109347343444824, 9.442120552062988, -1.4750897884368896, -0.1991962045431137, -34.182151794433594, -3.2227861881256104, -3.4525463581085205, -0.955322265625, -0.196044921875, -0.5126953125, 0, 
837, 1259331123, -0.28122851252555847, -0.6164761185646057, 0.3280254602432251, -0.6582306027412415, 0.9999973773956299, -0.0022849105298519135, -0.00017041154205799103, -0.00015435926616191864, 0.07823723554611206, -0.009887933731079102, -0.0009067654609680176, 9.389008522033691, -1.184898018836975, -0.11312730610370636, -31.421056747436523, -2.3434226512908936, -2.1226789951324463, -0.954345703125, -0.194580078125, -0.51513671875, 0, 
838, 1259339456, -0.28255218267440796, -0.6160231232643127, 0.3294663429260254, -0.6573675274848938, 0.999997615814209, -0.002170370891690254, -0.0001810174435377121, -0.00004409998655319214, 0.07814371585845947, -0.007314205169677734, -0.0009583830833435059, 9.37763786315918, -0.8770749568939209, -0.11860760301351547, -29.84596061706543, -2.4892704486846924, -0.6064431667327881, -0.952880859375, -0.194580078125, -0.517578125, 0, 
839, 1259347789, -0.28377002477645874, -0.6155855655670166, 0.33091261982917786, -0.6565258502960205, 0.9999977946281433, -0.00207703560590744, -0.0002302303910255432, 0.00007261615246534348, 0.07845944166183472, -0.0054062604904174805, -0.0010720491409301758, 9.415431022644043, -0.6491920351982117, -0.13217349350452423, -28.562450408935547, -3.1660239696502686, 0.9985844492912292, -0.955810546875, -0.193115234375, -0.51611328125, 0, 
840, 1259356122, -0.2848745882511139, -0.6151588559150696, 0.3324373662471771, -0.6556766033172607, 0.9999977946281433, -0.0020784512162208557, -0.00028602033853530884, 0.0001468481495976448, 0.0787043571472168, -0.004568159580230713, -0.001391291618347168, 9.444771766662598, -0.5492354035377502, -0.17079225182533264, -28.581924438476562, -3.933223009109497, 2.0193898677825928, -0.955810546875, -0.195068359375, -0.51611328125, 0, 
841, 1259364455, -0.286041796207428, -0.6147210597991943, 0.33400312066078186, -0.6547826528549194, 0.999997615814209, -0.0021416693925857544, -0.00031204521656036377, 0.0001639658585190773, 0.07889699935913086, -0.004548311233520508, -0.002343595027923584, 9.467840194702148, -0.5467658042907715, -0.2853647768497467, -29.45126724243164, -4.291104316711426, 2.254784107208252, -0.954833984375, -0.192626953125, -0.5166015625, 0, 
842, 1259372788, -0.2872326076030731, -0.6143059134483337, 0.33564719557762146, -0.6538094878196716, 0.9999973773956299, -0.0022476203739643097, -0.00037501566112041473, 0.00012446288019418716, 0.07839584350585938, -0.005740225315093994, -0.0021539926528930664, 9.407693862915039, -0.6894412636756897, -0.2635735869407654, -30.90825843811035, -5.157045364379883, 1.7115572690963745, -0.953369140625, -0.189208984375, -0.52099609375, 0, 
843, 1259381121, -0.28854483366012573, -0.6139862537384033, 0.33729782700538635, -0.6526817083358765, 0.9999971389770508, -0.0023305732756853104, -0.0005074497312307358, 0.000014544464647769928, 0.0782356858253479, -0.007421433925628662, -0.0003254413604736328, 9.38862419128418, -0.8906478881835938, -0.04589800909161568, -32.04899597167969, -6.978221416473389, 0.20000895857810974, -0.953369140625, -0.186767578125, -0.515625, 0, 
844, 1259389454, -0.28991517424583435, -0.6137851476669312, 0.33897143602371216, -0.651395320892334, 0.9999968409538269, -0.002420874312520027, -0.0006553158164024353, -0.00013688579201698303, 0.07872098684310913, -0.009948670864105225, 0.0001627802848815918, 9.447071075439453, -1.192633032798767, 0.010441096499562263, -33.29077911376953, -9.011609077453613, -1.8823920488357544, -0.955810546875, -0.185791015625, -0.51953125, 0, 
845, 1259397787, -0.29143571853637695, -0.6137298345565796, 0.3405712842941284, -0.6499326825141907, 0.9999966025352478, -0.002461988478899002, -0.0007993839681148529, -0.0003394298255443573, 0.07887077331542969, -0.012250244617462158, 0.0013706088066101074, 9.465497970581055, -1.4672667980194092, 0.15328145027160645, -33.85616683959961, -10.992770195007324, -4.667686939239502, -0.960205078125, -0.185791015625, -0.5185546875, 0, 
846, 1259406120, -0.29290971159935, -0.613896369934082, 0.3420429229736328, -0.6483380198478699, 0.9999966025352478, -0.0023510586470365524, -0.0009898878633975983, -0.0005429573357105255, 0.07944035530090332, -0.012571275234222412, 0.00202178955078125, 9.53427791595459, -1.5040022134780884, 0.22965776920318604, -32.330711364746094, -13.612497329711914, -7.466507434844971, -0.95263671875, -0.183837890625, -0.521484375, 0, 
847, 1259414453, -0.2943387031555176, -0.6143054366111755, 0.3432760238647461, -0.6466494798660278, 0.9999968409538269, -0.002109833061695099, -0.001163611188530922, -0.0007317196577787399, 0.08053076267242432, -0.012797117233276367, 0.0017336010932922363, 9.665438652038574, -1.5290653705596924, 0.19354282319545746, -29.013479232788086, -16.0014591217041, -10.062280654907227, -0.956787109375, -0.182373046875, -0.51806640625, 0, 
848, 1259422786, -0.29559966921806335, -0.6148808002471924, 0.34425437450408936, -0.6450052261352539, 0.9999972581863403, -0.0017976164817810059, -0.0012132860720157623, -0.000862685963511467, 0.0814809799194336, -0.01362752914428711, 0.002210378646850586, 9.779834747314453, -1.6273918151855469, 0.2504400908946991, -24.720008850097656, -16.684560775756836, -11.863266944885254, -0.956298828125, -0.182373046875, -0.513671875, 0, 
849, 1259431119, -0.29670393466949463, -0.6155834794044495, 0.34492358565330505, -0.6434687972068787, 0.9999978542327881, -0.001408284530043602, -0.0012055132538080215, -0.0009271316230297089, 0.08181524276733398, -0.01387721300125122, 0.003836512565612793, 9.82030963897705, -1.6568794250488281, 0.4462367296218872, -19.366090774536133, -16.57767105102539, -12.749493598937988, -0.956787109375, -0.182861328125, -0.5166015625, 0, 
850, 1259439452, -0.29755938053131104, -0.6163768768310547, 0.3453267812728882, -0.6420966386795044, 0.9999983906745911, -0.0010191723704338074, -0.0011557862162590027, -0.000949537381529808, 0.08200591802597046, -0.013969242572784424, 0.004898726940155029, 9.843367576599121, -1.667620062828064, 0.5747817754745483, -14.015192985534668, -15.893845558166504, -13.057604789733887, -0.957275390625, -0.183837890625, -0.51611328125, 0, 
851, 1259447785, -0.2982662320137024, -0.6171658635139465, 0.3455125391483307, -0.6409096717834473, 0.9999988079071045, -0.0007076673209667206, -0.001040259376168251, -0.0008982773870229721, 0.08084315061569214, -0.01413118839263916, 0.006509661674499512, 9.703889846801758, -1.6876643896102905, 0.7699263095855713, -9.73151683807373, -14.305171966552734, -12.352700233459473, -0.956787109375, -0.186279296875, -0.51220703125, 0, 
852, 1259456118, -0.2987494170665741, -0.6179124116897583, 0.34559810161590576, -0.6399183869361877, 0.9999991655349731, -0.0004681013524532318, -0.0009248312562704086, -0.0007769111543893814, 0.07857465744018555, -0.013863027095794678, 0.00880885124206543, 9.431589126586914, -1.6568337678909302, 1.0476568937301636, -6.437115669250488, -12.717855453491211, -10.68372631072998, -0.962646484375, -0.183837890625, -0.510009765625, 0, 
853, 1259464451, -0.2990087866783142, -0.618641197681427, 0.3456164598464966, -0.6390824913978577, 0.9999994039535522, -0.00022191181778907776, -0.000891614705324173, -0.0005921218544244766, 0.07549524307250977, -0.012202441692352295, 0.009750068187713623, 9.06169319152832, -1.4592573642730713, 1.1616711616516113, -3.0516293048858643, -12.261075973510742, -8.142586708068848, -0.958740234375, -0.188232421875, -0.51220703125, 0, 
854, 1259472784, -0.2989402413368225, -0.6193907856941223, 0.3456650674343109, -0.6383619904518127, 0.999999463558197, -0.00000879727303981781, -0.0009390786290168762, -0.00036712177097797394, 0.07365703582763672, -0.010904788970947266, 0.009427189826965332, 8.840733528137207, -1.3054026365280151, 1.1230236291885376, -0.12097607553005219, -12.913779258728027, -5.04849100112915, -0.956298828125, -0.190185546875, -0.508544921875, 0, 
855, 1259481117, -0.2986062169075012, -0.6201211214065552, 0.3456692099571228, -0.6378066539764404, 0.9999995231628418, 0.0002508005127310753, -0.0009227413684129715, -0.00014067813754081726, 0.07258850336074829, -0.008884251117706299, 0.010178923606872559, 8.71222972869873, -1.064638376235962, 1.2138339281082153, 3.4488930702209473, -12.689112663269043, -1.9345407485961914, -0.958251953125, -0.189208984375, -0.506591796875, 0, 
856, 1259489450, -0.2979503571987152, -0.6208663582801819, 0.3456231653690338, -0.6374132633209229, 0.999999463558197, 0.0005274983122944832, -0.0009083356708288193, 0.0000483999028801918, 0.07118701934814453, -0.006667494773864746, 0.010316908359527588, 8.543866157531738, -0.7998931407928467, 1.2307605743408203, 7.253912925720215, -12.491012573242188, 0.6655731797218323, -0.959228515625, -0.191162109375, -0.508544921875, 0, 
857, 1259497783, -0.297147274017334, -0.6215982437133789, 0.3455513119697571, -0.6371136903762817, 0.9999993443489075, 0.00067849550396204, -0.0009078644216060638, 0.00018583331257104874, 0.07131153345108032, -0.004923641681671143, 0.011793255805969238, 8.558892250061035, -0.5914890170097351, 1.407922387123108, 9.330358505249023, -12.48453426361084, 2.5554943084716797, -0.960205078125, -0.190673828125, -0.506591796875, 0, 
858, 1259506116, -0.29618334770202637, -0.6223509311676025, 0.34551453590393066, -0.6368476152420044, 0.9999992251396179, 0.0007591387256979942, -0.0009432751685380936, 0.0002857400104403496, 0.07279646396636963, -0.003185451030731201, 0.011200129985809326, 8.737081527709961, -0.38374897837638855, 1.336108684539795, 10.43932819366455, -12.971487045288086, 3.929365634918213, -0.957763671875, -0.188720703125, -0.500732421875, 0, 
859, 1259514449, -0.29524534940719604, -0.6230309009552002, 0.3454779088497162, -0.6366382837295532, 0.9999992847442627, 0.0007561398670077324, -0.0008793771266937256, 0.00033874716609716415, 0.07614266872406006, -0.00283890962600708, 0.011223852634429932, 9.138551712036133, -0.34276241064071655, 1.3391358852386475, 10.398089408874512, -12.092791557312012, 4.65829610824585, -0.962890625, -0.189208984375, -0.497314453125, 0, 
860, 1259522782, -0.2943307161331177, -0.623635470867157, 0.3454591929912567, -0.6364800930023193, 0.9999994039535522, 0.0007104938849806786, -0.0007699821144342422, 0.00034881848841905594, 0.07942390441894531, -0.0014855265617370605, 0.01116788387298584, 9.532218933105469, -0.1806495636701584, 1.3329728841781616, 9.770384788513184, -10.588438987731934, 4.796791076660156, -0.9619140625, -0.189697265625, -0.498779296875, 0, 
861, 1259531115, -0.29358622431755066, -0.6241663098335266, 0.34540989995002747, -0.6363301277160645, 0.9999995231628418, 0.0006210329011082649, -0.0006804782897233963, 0.0002781050279736519, 0.08275675773620605, 0.00020080804824829102, 0.0094185471534729, 9.93198013305664, 0.02204117551445961, 1.1235142946243286, 8.54015827178955, -9.357623100280762, 3.8243720531463623, -0.96240234375, -0.188720703125, -0.496337890625, 0, 
862, 1259539448, -0.29296761751174927, -0.6246712803840637, 0.3453274965286255, -0.6361644268035889, 0.9999996423721313, 0.0005344105884432793, -0.0005902592092752457, 0.00015283841639757156, 0.08565855026245117, 0.0021879076957702637, 0.009622752666473389, 10.280156135559082, 0.26160696148872375, 1.1485847234725952, 7.348967552185059, -8.116971969604492, 2.1017637252807617, -0.96142578125, -0.189208984375, -0.496826171875, 0, 
863, 1259547781, -0.2924894392490387, -0.6251441240310669, 0.3451845049858093, -0.6359975337982178, 0.9999997615814209, 0.0004928195849061012, -0.0005378108471632004, 0.00006742682307958603, 0.08712953329086304, 0.002930581569671631, 0.010207891464233398, 10.456644058227539, 0.35158148407936096, 1.219201683998108, 6.777027130126953, -7.395726203918457, 0.9272225499153137, -0.96435546875, -0.191650390625, -0.494384765625, 0, 
864, 1259556114, -0.2920536398887634, -0.6256205439567566, 0.3450476825237274, -0.6358035802841187, 0.9999997615814209, 0.0004367781803011894, -0.0005107000470161438, 0.000004434026777744293, 0.08783191442489624, 0.0033039450645446777, 0.010093927383422852, 10.540864944458008, 0.39696627855300903, 1.2058197259902954, 6.006372451782227, -7.022911548614502, 0.060974687337875366, -0.96728515625, -0.188720703125, -0.492431640625, 0, 
865, 1259564447, -0.29173874855041504, -0.6260392665863037, 0.3449820578098297, -0.6355714797973633, 0.9999998211860657, 0.0003053983673453331, -0.0005134567618370056, 0.0000149579718708992, 0.08768677711486816, 0.003466486930847168, 0.011465251445770264, 10.523544311523438, 0.41625717282295227, 1.3703469038009644, 4.199697017669678, -7.060819625854492, 0.20569512248039246, -0.96533203125, -0.191650390625, -0.492919921875, 0, 
866, 1259572780, -0.29137590527534485, -0.6264061331748962, 0.3451017737388611, -0.6353114247322083, 0.9999998211860657, 0.00017327163368463516, -0.0005322787910699844, 0.00013698730617761612, 0.08718198537826538, 0.002062976360321045, 0.010635018348693848, 10.462960243225098, 0.24637027084827423, 1.2707138061523438, 2.382751941680908, -7.319653511047363, 1.8837864398956299, -0.96728515625, -0.192626953125, -0.489990234375, 0, 
867, 1259581113, -0.29102951288223267, -0.6266642212867737, 0.3453974425792694, -0.6350549459457397, 0.9999998211860657, 0.000042700208723545074, -0.0005460362881422043, 0.0003134431317448616, 0.08596807718276978, -0.0002815723419189453, 0.0078316330909729, 10.31706714630127, -0.0368972010910511, 0.934354305267334, 0.587193489074707, -7.508838653564453, 4.3103251457214355, -0.96533203125, -0.191650390625, -0.489501953125, 0, 
868, 1259589446, -0.29054418206214905, -0.626842200756073, 0.3458777964115143, -0.6348402500152588, 0.9999997019767761, -0.00001835264265537262, -0.0005311779677867889, 0.0005192840471863747, 0.08476507663726807, -0.002764880657196045, 0.005302131175994873, 10.172382354736328, -0.33722805976867676, 0.6307336091995239, -0.25237709283828735, -7.304515361785889, 7.140955448150635, -0.9677734375, -0.190185546875, -0.490478515625, 0, 
869, 1259597779, -0.29000794887542725, -0.626911997795105, 0.34642675518989563, -0.6347171068191528, 0.9999996423721313, -0.000006070360541343689, -0.0004850570112466812, 0.0006992211565375328, 0.08214366436004639, -0.005832076072692871, 0.005301713943481445, 9.857454299926758, -0.7066881656646729, 0.6315047740936279, -0.08347678929567337, -6.6702799797058105, 9.615365982055664, -0.96875, -0.188232421875, -0.486083984375, 0, 
870, 1259606112, -0.2892586290836334, -0.6269546747207642, 0.3470364212989807, -0.6346837282180786, 0.9999995231628418, 0.00008856970816850662, -0.0004606693983078003, 0.0008673546835780144, 0.08038604259490967, -0.009745538234710693, 0.00466388463973999, 9.645939826965332, -1.1779237985610962, 0.555298924446106, 1.2179696559906006, -6.3349127769470215, 11.927462577819824, -0.96728515625, -0.189208984375, -0.487060546875, 0, 
871, 1259614445, -0.2884775698184967, -0.6268860697746277, 0.3475745618343353, -0.6348124146461487, 0.999999463558197, 0.00020220782607793808, -0.0003231111913919449, 0.0009695189073681831, 0.07914882898330688, -0.013909518718719482, 0.002727210521697998, 9.496740341186523, -1.6782469749450684, 0.3245788514614105, 2.7806687355041504, -4.4432759284973145, 13.332376480102539, -0.9716796875, -0.188232421875, -0.484619140625, 0, 
872, 1259622778, -0.2875523865222931, -0.6268187761306763, 0.34804168343544006, -0.635042667388916, 0.9999994039535522, 0.00034908484667539597, -0.00024542398750782013, 0.001004011370241642, 0.07556957006454468, -0.01760345697402954, 0.003053128719329834, 9.066672325134277, -2.121490716934204, 0.3649007976055145, 4.800454616546631, -3.3749582767486572, 13.8067045211792, -0.970703125, -0.184326171875, -0.485107421875, 0, 
873, 1259631111, -0.2865382432937622, -0.6268404722213745, 0.3484262228012085, -0.6352689862251282, 0.9999992847442627, 0.0005045207217335701, -0.0003576241433620453, 0.001016124151647091, 0.07485425472259521, -0.02125781774520874, 0.0018468499183654785, 8.980379104614258, -2.559965133666992, 0.21972651779651642, 6.937938213348389, -4.917882919311523, 13.973273277282715, -0.9716796875, -0.182861328125, -0.483642578125, 0, 
874, 1259639444, -0.2853664457798004, -0.6269720196723938, 0.34869590401649475, -0.6355185508728027, 0.9999992251396179, 0.0006929496303200722, -0.00038904882967472076, 0.0009733838960528374, 0.07602649927139282, -0.022706329822540283, -0.0005981326103210449, 9.120859146118164, -2.7338006496429443, -0.07343784719705582, 9.529126167297363, -5.350020408630371, 13.385528564453125, -0.97119140625, -0.181884765625, -0.482666015625, 0, 
875, 1259647777, -0.28418591618537903, -0.627129852771759, 0.3487461507320404, -0.6358640193939209, 0.9999991655349731, 0.000899248756468296, -0.0003332439810037613, 0.0008944077417254448, 0.07835996150970459, -0.02338862419128418, -0.004705548286437988, 9.400856971740723, -2.81571102142334, -0.5652986764907837, 12.366056442260742, -4.582618713378906, 12.299485206604004, -0.9736328125, -0.181884765625, -0.481689453125, 0, 
876, 1259656110, -0.282920777797699, -0.6273617744445801, 0.3486461043357849, -0.6362542510032654, 0.9999990463256836, 0.0010640481486916542, -0.00029185786843299866, 0.0008061202242970467, 0.07950359582901001, -0.021606087684631348, -0.007585585117340088, 9.53844165802002, -2.6015408039093018, -0.9103294014930725, 14.63230037689209, -4.013494968414307, 11.085394859313965, -0.97265625, -0.179931640625, -0.477783203125, 0, 
877, 1259664443, -0.28158503770828247, -0.6276687383651733, 0.34851107001304626, -0.6366180777549744, 0.999998927116394, 0.0011597732082009315, -0.0004179626703262329, 0.0008248677477240562, 0.0845288634300232, -0.01889216899871826, -0.010097026824951172, 10.14148235321045, -2.2769463062286377, -1.2133015394210815, 15.948667526245117, -5.7476301193237305, 11.343202590942383, -0.97412109375, -0.177490234375, -0.479736328125, 0, 
878, 1259672776, -0.28034675121307373, -0.6279091835021973, 0.34830930829048157, -0.6370378732681274, 0.9999990463256836, 0.001124694012105465, -0.0002406686544418335, 0.000730426050722599, 0.09066462516784668, -0.01468580961227417, -0.011538088321685791, 10.878575325012207, -1.7718278169631958, -1.3852558135986328, 15.466277122497559, -3.309565305709839, 10.044485092163086, -0.97314453125, -0.176513671875, -0.478759765625, 0, 
879, 1259681109, -0.2792608141899109, -0.6280825138092041, 0.34807088971138, -0.6374738812446594, 0.9999992251396179, 0.0010536694899201393, -0.0001694168895483017, 0.0006630485877394676, 0.09137678146362305, -0.01088184118270874, -0.011219441890716553, 10.964556694030762, -1.3145678043365479, -1.3468652963638306, 14.489580154418945, -2.3297436237335205, 9.117941856384277, -0.97314453125, -0.179931640625, -0.478271484375, 0, 
880, 1259689442, -0.2783122956752777, -0.6282055377960205, 0.3478551506996155, -0.6378852128982544, 0.9999994039535522, 0.0009158579632639885, -0.00006645172834396362, 0.0005757315084338188, 0.09449595212936401, -0.008820414543151855, -0.01050633192062378, 11.33928108215332, -1.0660945177078247, -1.2605944871902466, 12.594459533691406, -0.9138137102127075, 7.917195796966553, -0.97802734375, -0.177978515625, -0.475341796875, 0, 
881, 1259697775, -0.27759337425231934, -0.6281851530075073, 0.3475331664085388, -0.638393759727478, 0.9999995231628418, 0.0008463999256491661, 0.00015361886471509933, 0.0004618624225258827, 0.09370213747024536, -0.007822930812835693, -0.009216248989105225, 11.244441986083984, -0.9449206590652466, -1.1034698486328125, 11.639302253723145, 2.1124958992004395, 6.351319789886475, -0.973876953125, -0.176513671875, -0.472412109375, 0, 
882, 1259706108, -0.2769079804420471, -0.6281698942184448, 0.34716665744781494, -0.6389058232307434, 0.9999995231628418, 0.0008433079347014427, 0.0002185320481657982, 0.00038939621299505234, 0.0902974009513855, -0.007913768291473389, -0.007745563983917236, 10.83595085144043, -0.9547659158706665, -0.9262883067131042, 11.596782684326172, 3.0051522254943848, 5.354796886444092, -0.9755859375, -0.177490234375, -0.475830078125, 0, 
883, 1259714441, -0.2762295603752136, -0.6281441450119019, 0.34674638509750366, -0.6394524574279785, 0.9999995231628418, 0.0008952813223004341, 0.0002250736579298973, 0.00038634520024061203, 0.08726644515991211, -0.00861203670501709, -0.006837666034698486, 10.472172737121582, -1.0383217334747314, -0.817230224609375, 12.311495780944824, 3.095109224319458, 5.312841415405273, -0.9765625, -0.178466796875, -0.477294921875, 0, 
884, 1259722774, -0.2753975987434387, -0.6282002925872803, 0.3463023602962494, -0.6399965286254883, 0.9999994039535522, 0.0010157497599720955, 0.0001634964719414711, 0.0004184329882264137, 0.08386373519897461, -0.009957492351531982, -0.00475698709487915, 10.063647270202637, -1.1996914148330688, -0.5680274963378906, 13.968122482299805, 2.24832820892334, 5.754097938537598, -0.978271484375, -0.176513671875, -0.472900390625, 0, 
885, 1259731107, -0.27441641688346863, -0.6283360719680786, 0.34581199288368225, -0.6405497789382935, 0.9999991655349731, 0.001177026890218258, 0.000042255036532878876, 0.00048161204904317856, 0.08158999681472778, -0.011029958724975586, -0.0028135180473327637, 9.790571212768555, -1.3287291526794434, -0.3356739580631256, 16.185932159423828, 0.5810717940330505, 6.622906684875488, -0.975830078125, -0.177001953125, -0.469970703125, 0, 
886, 1259739440, -0.2732636034488678, -0.6285335421562195, 0.3453376293182373, -0.6411046385765076, 0.9999990463256836, 0.0012793680652976036, -0.000022698193788528442, 0.0005590515211224556, 0.07888847589492798, -0.011615931987762451, -0.0032376646995544434, 9.466211318969727, -1.3997187614440918, -0.38697463274002075, 17.593280792236328, -0.31213513016700745, 7.687819480895996, -0.978515625, -0.175048828125, -0.473388671875, 0, 
887, 1259747773, -0.2721027731895447, -0.628707766532898, 0.3449028432369232, -0.6416613459587097, 0.9999989867210388, 0.0012654336169362068, -0.00005684792995452881, 0.0006182333454489708, 0.07587593793869019, -0.011405408382415771, -0.0044095516204833984, 9.104593276977539, -1.3750334978103638, -0.5279437899589539, 17.401662826538086, -0.7817466259002686, 8.501662254333496, -0.977294921875, -0.176513671875, -0.471435546875, 0, 
888, 1259756106, -0.27097347378730774, -0.6288751363754272, 0.3445568382740021, -0.642160952091217, 0.9999991655349731, 0.0011550141498446465, -0.0000651869922876358, 0.0006201388314366341, 0.07422870397567749, -0.01053708791732788, -0.005233705043792725, 8.90697193145752, -1.27077054977417, -0.6271840929985046, 15.88322639465332, -0.8964217901229858, 8.527865409851074, -0.977294921875, -0.177490234375, -0.471923828125, 0, 
889, 1259764439, -0.2699902057647705, -0.6289988160133362, 0.3442462384700775, -0.642620325088501, 0.9999992847442627, 0.0010259626433253288, -0.000057308003306388855, 0.0005718385800719261, 0.07387769222259521, -0.007667362689971924, -0.0050765275955200195, 8.865120887756348, -0.9257655739784241, -0.608773410320282, 14.108567237854004, -0.7880732417106628, 7.86366081237793, -0.982177734375, -0.17529296875, -0.470947265625, 0, 
890, 1259772772, -0.2691088914871216, -0.6290895342826843, 0.3439793586730957, -0.6430442333221436, 0.999999463558197, 0.0009013833478093147, 3.6228448152542114e-7, 0.0005164770409464836, 0.07584047317504883, -0.0037100911140441895, -0.00538027286529541, 9.100991249084473, -0.45048007369041443, -0.6452550292015076, 12.395407676696777, 0.004981969483196735, 7.102354049682617, -0.977294921875, -0.175048828125, -0.470458984375, 0, 
891, 1259781105, -0.268405556678772, -0.6290818452835083, 0.34376633167266846, -0.6434590816497803, 0.9999995827674866, 0.0007361685857176781, 0.00007064174860715866, 0.00048601720482110977, 0.0796804428100586, 0.0023532509803771973, -0.0032458901405334473, 9.562198638916016, 0.2775196433067322, -0.3890588879585266, 10.123449325561523, 0.971432626247406, 6.683484077453613, -0.978271484375, -0.177001953125, -0.469482421875, 0, 
892, 1259789438, -0.26785022020339966, -0.6290194988250732, 0.3436989188194275, -0.6437872052192688, 0.9999997615814209, 0.0004939297214150429, 0.0000970577821135521, 0.0004592565819621086, 0.08334028720855713, 0.009923994541168213, 0.0010659098625183105, 10.001784324645996, 1.186274766921997, 0.12830762565135956, 6.792293548583984, 1.3346939086914062, 6.315485000610352, -0.978759765625, -0.174072265625, -0.471435546875, 0, 
893, 1259797771, -0.26759183406829834, -0.6287771463394165, 0.3438623547554016, -0.6440442204475403, 0.9999998807907104, 0.0000981288030743599, 0.00017568189650774002, 0.000476703979074955, 0.08772289752960205, 0.01586902141571045, 0.00536268949508667, 10.52796459197998, 1.8993947505950928, 0.6452141404151917, 1.3494219779968262, 2.41589617729187, 6.5554118156433105, -0.978759765625, -0.175537109375, -0.466552734375, 0, 
894, 1259806104, -0.26761284470558167, -0.6283526420593262, 0.34439313411712646, -0.6441661715507507, 0.9999997615814209, -0.00042158178985118866, 0.0002386057749390602, 0.0005336375907063484, 0.0910484790802002, 0.02031952142715454, 0.00879126787185669, 10.927275657653809, 2.4323184490203857, 1.0585389137268066, -5.797397613525391, 3.281196355819702, 7.338337421417236, -0.982177734375, -0.17138671875, -0.471435546875, 0, 
895, 1259814437, -0.2681092619895935, -0.6276501417160034, 0.3453751802444458, -0.6441187858581543, 0.9999991655349731, -0.001126674935221672, 0.00032058265060186386, 0.0005888668820261955, 0.0921059250831604, 0.021603763103485107, 0.009672820568084717, 11.05431079864502, 2.5846920013427734, 1.1672823429107666, -15.493517875671387, 4.408505916595459, 8.097827911376953, -0.980224609375, -0.173583984375, -0.471435546875, 0, 
896, 1259822770, -0.269123911857605, -0.6266116499900818, 0.34681573510169983, -0.6439328193664551, 0.9999978542327881, -0.0019021853804588318, 0.0005396855995059013, 0.0005942760035395622, 0.09209084510803223, 0.019587576389312744, 0.0095939040184021, 11.052114486694336, 2.3418405055999756, 1.1617419719696045, -26.15799331665039, 7.421512126922607, 8.17221450805664, -0.98046875, -0.16943359375, -0.476318359375, 0, 
897, 1259831103, -0.2708584666252136, -0.6251903772354126, 0.3486521244049072, -0.6435952186584473, 0.999995768070221, -0.002741064876317978, 0.0007981294766068459, 0.0005078120157122612, 0.0879136323928833, 0.016418397426605225, 0.008356273174285889, 10.550252914428711, 1.9621713161468506, 1.0165996551513672, -37.693904876708984, 10.9755220413208, 6.983205318450928, -0.9833984375, -0.16748046875, -0.475341796875, 0, 
898, 1259839436, -0.273212730884552, -0.623556911945343, 0.3508664071559906, -0.6429810523986816, 0.9999932646751404, -0.0035482514649629593, 0.0009117098525166512, 0.0003072703257203102, 0.08209186792373657, 0.01293647289276123, 0.005703985691070557, 9.851265907287598, 1.5469595193862915, 0.6990047693252563, -48.79402542114258, 12.537440299987793, 4.2254486083984375, -0.97705078125, -0.166259765625, -0.477783203125, 0, 
899, 1259847769, -0.2761552035808563, -0.6218647956848145, 0.3532872796058655, -0.642036497592926, 0.9999909996986389, -0.004151815548539162, 0.0008540423586964607, 0.00003371480852365494, 0.07751858234405518, 0.008779644966125488, 0.003034353256225586, 9.302323341369629, 1.0517568588256836, 0.3764554262161255, -57.09401321411133, 11.744430541992188, 0.46363186836242676, -0.97802734375, -0.163330078125, -0.483642578125, 0, 
900, 1259856102, -0.27935659885406494, -0.6203358173370361, 0.35575592517852783, -0.6407662630081177, 0.9999898672103882, -0.004441527649760246, 0.0006642835214734077, -0.00029589608311653137, 0.07207554578781128, 0.005102932453155518, -0.0015402436256408691, 8.649349212646484, 0.6157457828521729, -0.176362082362175, -61.07804489135742, 9.134950637817383, -4.069040298461914, -0.9794921875, -0.160400390625, -0.485107421875, 0, 
901, 1259864435, -0.2827467620372772, -0.6190317869186401, 0.3581113815307617, -0.6392267346382141, 0.9999896883964539, -0.004487307742238045, 0.0004107477143406868, -0.0005914028733968735, 0.06962025165557861, 0.0007240176200866699, -0.005651295185089111, 8.354988098144531, 0.09486370533704758, -0.674349308013916, -61.70759201049805, 5.64843225479126, -8.13272762298584, -0.975830078125, -0.155517578125, -0.489501953125, 0, 
902, 1259872768, -0.2858197093009949, -0.6181017756462097, 0.36024394631385803, -0.6375595331192017, 0.999991238117218, -0.004120152443647385, 0.0000832853838801384, -0.0007473845034837723, 0.0696306824684143, -0.002698063850402832, -0.00558316707611084, 8.356310844421387, -0.3147675693035126, -0.6706327795982361, -56.65859603881836, 1.1453053951263428, -10.277716636657715, -0.977294921875, -0.155517578125, -0.489013671875, 0, 
903, 1259881101, -0.2884666621685028, -0.6175234913825989, 0.3621128499507904, -0.6358665823936462, 0.9999933838844299, -0.003563420847058296, -0.00027572736144065857, -0.0007201787084341049, 0.07143545150756836, -0.004767894744873047, -0.003780543804168701, 8.572881698608398, -0.5643749833106995, -0.4580766260623932, -49.002620697021484, -3.7916834354400635, -9.903586387634277, -0.973876953125, -0.153564453125, -0.493408203125, 0, 
904, 1259889434, -0.2904118299484253, -0.6172767877578735, 0.3639177978038788, -0.6341880559921265, 0.9999951124191284, -0.003022588789463043, -0.0006725955754518509, -0.0004818476736545563, 0.07389765977859497, -0.008300304412841797, -0.003297746181488037, 8.868284225463867, -0.9905900955200195, -0.4047281742095947, -41.565311431884766, -9.249238967895508, -6.626157283782959, -0.978759765625, -0.152587890625, -0.491455078125, 0, 
905, 1259897767, -0.29183870553970337, -0.6171598434448242, 0.3658032715320587, -0.6325601935386658, 0.9999959468841553, -0.0026629026979207993, -0.0009753517806529999, -0.00008365139365196228, 0.07523304224014282, -0.012334585189819336, -0.0029326677322387695, 9.028100967407227, -1.4785058498382568, -0.3646756708621979, -36.61906051635742, -13.412605285644531, -1.1503369808197021, -0.976318359375, -0.151123046875, -0.490966796875, 0, 
906, 1259906100, -0.2925909757614136, -0.6171430945396423, 0.3679019808769226, -0.6310100555419922, 0.9999963641166687, -0.0023584365844726562, -0.001260155811905861, 0.0004085106775164604, 0.07778847217559814, -0.015717387199401855, -0.0007918477058410645, 9.334091186523438, -1.8897451162338257, -0.11127156764268875, -32.43217086791992, -17.3291015625, 5.617656707763672, -0.979248046875, -0.150146484375, -0.492431640625, 0, 
907, 1259914433, -0.2928193211555481, -0.6170525550842285, 0.3700813949108124, -0.6297168135643005, 0.9999967217445374, -0.0019789505749940872, -0.0013108458369970322, 0.0009415103122591972, 0.08277708292007446, -0.022494375705718994, -0.002749204635620117, 9.930657386779785, -2.7081267833709717, -0.34830188751220703, -27.21364402770996, -18.026165008544922, 12.947229385375977, -0.977294921875, -0.145263671875, -0.489013671875, 0, 
908, 1259922766, -0.2926023304462433, -0.6167744398117065, 0.37232229113578796, -0.6287684440612793, 0.9999969601631165, -0.0017043016850948334, -0.001123262569308281, 0.0013801390305161476, 0.08382982015609741, -0.02604740858078003, -0.0011959671974182129, 10.055487632751465, -3.1394612789154053, -0.16017857193946838, -23.43679428100586, -15.44660472869873, 18.979055404663086, -0.978759765625, -0.142333984375, -0.489013671875, 0, 
909, 1259931099, -0.29229459166526794, -0.6162512898445129, 0.3745770752429962, -0.6280850768089294, 0.9999969601631165, -0.0015980657190084457, -0.0008836351335048676, 0.001660446636378765, 0.08529937267303467, -0.029240310192108154, -0.0012418627738952637, 10.23037338256836, -3.5256919860839844, -0.16366034746170044, -21.97588539123535, -12.15135383605957, 22.833717346191406, -0.985107421875, -0.14111328125, -0.487548828125, 0, 
910, 1259939432, -0.29190847277641296, -0.6155439019203186, 0.37673714756965637, -0.6276662349700928, 0.9999971985816956, -0.001476965844631195, -0.0005666166543960571, 0.0017518075183033943, 0.08683502674102783, -0.027051091194152832, -0.000025928020477294922, 10.4149169921875, -3.2645082473754883, -0.013821772299706936, -20.310569763183594, -7.79185676574707, 24.090068817138672, -0.982666015625, -0.135498046875, -0.489013671875, 0, 
911, 1259947765, -0.2915305495262146, -0.6147257089614868, 0.3787268400192261, -0.6274462342262268, 0.9999974966049194, -0.0013043712824583054, -0.00036300159990787506, 0.0017813080921769142, 0.09215748310089111, -0.024354875087738037, -0.0019295811653137207, 11.054038047790527, -2.94209623336792, -0.23939451575279236, -17.93712615966797, -4.9918341636657715, 24.495744705200195, -0.985595703125, -0.1298828125, -0.489013671875, 0, 
912, 1259956098, -0.2911723852157593, -0.6138845682144165, 0.3805682361125946, -0.6273218989372253, 0.9999978542327881, -0.0012220777571201324, -0.00019782409071922302, 0.0016746493056416512, 0.08959877490997314, -0.01720905303955078, 0.0006356239318847656, 10.748817443847656, -2.0833230018615723, 0.07160473614931107, -16.805461883544922, -2.7203874588012695, 23.029020309448242, -0.989013671875, -0.1279296875, -0.489013671875, 0, 
913, 1259964431, -0.2907378673553467, -0.613201379776001, 0.38231900334358215, -0.627126932144165, 0.9999980330467224, -0.0010742228478193283, -0.00038541294634342194, 0.0016208188608288765, 0.09041178226470947, -0.01038748025894165, -0.0006924867630004883, 10.84778118133545, -1.2640600204467773, -0.08863458037376404, -14.77222728729248, -5.300024032592773, 22.288766860961914, -0.989013671875, -0.12353515625, -0.490966796875, 0, 
914, 1259972764, -0.2905084192752838, -0.6125331521034241, 0.3839443325996399, -0.6268934607505798, 0.9999983906745911, -0.0011566076427698135, -0.0002612099051475525, 0.0013638781383633614, 0.09472143650054932, -0.005943477153778076, -0.002577662467956543, 11.365962028503418, -0.7284455299377441, -0.31314587593078613, -15.905142784118652, -3.5920395851135254, 18.755430221557617, -0.988525390625, -0.119140625, -0.488525390625, 0, 
915, 1259981097, -0.2904297113418579, -0.6118152737617493, 0.3853137791156769, -0.6267907023429871, 0.9999987483024597, -0.0010283440351486206, -0.00006105564534664154, 0.001202908344566822, 0.09780645370483398, -0.0035943984985351562, -0.010019004344940186, 11.736647605895996, -0.44420209527015686, -1.2034906148910522, -14.141317367553711, -0.8396093845367432, 16.541847229003906, -0.988037109375, -0.1181640625, -0.488525390625, 0, 
916, 1259989430, -0.29053881764411926, -0.6109245419502258, 0.3864883482456207, -0.6268858909606934, 0.9999988675117493, -0.0010194778442382812, 0.00034064147621393204, 0.0010568788275122643, 0.09317737817764282, -0.003981888294219971, -0.013638615608215332, 11.181781768798828, -0.4879627823829651, -1.6333911418914795, -14.019393920898438, 4.684345722198486, 14.533714294433594, -0.989501953125, -0.11474609375, -0.487548828125, 0, 
917, 1259997763, -0.2909621298313141, -0.609869122505188, 0.3876669108867645, -0.6269891262054443, 0.9999986290931702, -0.0012331847101449966, 0.0005266563966870308, 0.0009630704298615456, 0.0867621898651123, -0.005146980285644531, -0.014696836471557617, 10.412208557128906, -0.6254776120185852, -1.7589960098266602, -16.958192825317383, 7.242338180541992, 13.243705749511719, -0.990478515625, -0.11083984375, -0.486572265625, 0, 
918, 1260006096, -0.29155346751213074, -0.6087431311607361, 0.3889365792274475, -0.6270224452018738, 0.9999983310699463, -0.0014659464359283447, 0.0006092777475714684, 0.0008856980130076408, 0.08055460453033447, -0.006048142910003662, -0.012579083442687988, 9.66721248626709, -0.7321641445159912, -1.5047223567962646, -20.159027099609375, 8.378508567810059, 12.179715156555176, -0.98779296875, -0.110107421875, -0.491455078125, 0, 
919, 1260014429, -0.29225239157676697, -0.6075804829597473, 0.39015960693359375, -0.6270648241043091, 0.9999983310699463, -0.0014834646135568619, 0.000654357485473156, 0.0008423933759331703, 0.07660305500030518, -0.007016360759735107, -0.01017904281616211, 9.192821502685547, -0.8479298949241638, -1.2167712450027466, -20.39992904663086, 8.99842643737793, 11.584209442138672, -0.98974609375, -0.1103515625, -0.491455078125, 0, 
920, 1260022762, -0.2927643954753876, -0.6065288186073303, 0.39136821031570435, -0.6270910501480103, 0.9999985694885254, -0.0013605281710624695, 0.0005449904128909111, 0.000867101363837719, 0.07444143295288086, -0.00966864824295044, -0.009323179721832275, 8.932931900024414, -1.166489839553833, -1.1155494451522827, -18.709362030029297, 7.49445915222168, 11.923982620239258, -0.98974609375, -0.1044921875, -0.495849609375, 0, 
921, 1260031095, -0.29307428002357483, -0.6055876016616821, 0.39256447553634644, -0.6271081566810608, 0.9999987483024597, -0.0011756327003240585, 0.00035859737545251846, 0.0009763510897755623, 0.07512551546096802, -0.0127066969871521, -0.010754406452178955, 9.014389991760254, -1.532178282737732, -1.2891374826431274, -16.166759490966797, 4.9312663078308105, 13.426331520080566, -0.99072265625, -0.1044921875, -0.495849609375, 0, 
922, 1260039428, -0.29336321353912354, -0.6045866012573242, 0.3937051296234131, -0.6272238492965698, 0.9999987483024597, -0.0011327005922794342, 0.0005000429227948189, 0.0009724320843815804, 0.07638567686080933, -0.01694852113723755, -0.011852681636810303, 9.165380477905273, -2.041192054748535, -1.420106291770935, -15.576379776000977, 6.87636137008667, 13.372441291809082, -0.9892578125, -0.1005859375, -0.495361328125, 0, 
923, 1260047761, -0.2936800718307495, -0.6035658717155457, 0.3947592079639435, -0.6273961067199707, 0.9999988079071045, -0.0010537616908550262, 0.0005488572642207146, 0.0009614350274205208, 0.07636791467666626, -0.01769357919692993, -0.011179685592651367, 9.163214683532715, -2.130676031112671, -1.3388398885726929, -14.49084758758545, 7.547633171081543, 13.221213340759277, -0.9912109375, -0.0966796875, -0.499755859375, 0, 
924, 1260056094, -0.2939361333847046, -0.602560818195343, 0.3957315683364868, -0.6276297569274902, 0.999998927116394, -0.0009619221091270447, 0.0006102612242102623, 0.0009277062490582466, 0.07618147134780884, -0.017382681369781494, -0.007759451866149902, 9.140779495239258, -2.0935473442077637, -0.9276222586631775, -13.227912902832031, 8.392033576965332, 12.757391929626465, -0.9931640625, -0.09814453125, -0.499755859375, 0, 
925, 1260064427, -0.2940903604030609, -0.6015846729278564, 0.39654579758644104, -0.6279798150062561, 0.9999991059303284, -0.0007239747792482376, 0.0006367852911353111, 0.000950629822909832, 0.07563364505767822, -0.017728984355926514, -0.007507443428039551, 9.074936866760254, -2.1356027126312256, -0.8966593146324158, -9.955768585205078, 8.756778717041016, 13.072624206542969, -0.98828125, -0.0947265625, -0.503173828125, 0, 
926, 1260072760, -0.29406943917274475, -0.6007153987884521, 0.3973313570022583, -0.6283250451087952, 0.9999992251396179, -0.0005937796086072922, 0.000537375919520855, 0.0009681051596999168, 0.07313251495361328, -0.01656895875930786, -0.008305907249450684, 8.774858474731445, -1.996264100074768, -0.9932132959365845, -8.165384292602539, 7.389747619628906, 13.31293773651123, -0.990234375, -0.09033203125, -0.502197265625, 0, 
927, 1260081093, -0.2939125895500183, -0.6000478863716125, 0.3981190323829651, -0.6285377144813538, 0.9999994039535522, -0.0004858337342739105, 0.0002461979165673256, 0.0009645773097872734, 0.07050061225891113, -0.014669358730316162, -0.007319986820220947, 8.45893383026123, -1.7680950164794922, -0.877212405204773, -6.680962085723877, 3.3856005668640137, 13.264423370361328, -0.9892578125, -0.088623046875, -0.501708984375, 0, 
928, 1260089426, -0.29351866245269775, -0.5996604561805725, 0.3989179730415344, -0.6285849213600159, 0.9999995231628418, -0.0003551654517650604, -0.00009680166840553284, 0.0009313682094216347, 0.07094413042068481, -0.013151109218597412, -0.0069928765296936035, 8.512065887451172, -1.5859051942825317, -0.8405786156654358, -4.8840718269348145, -1.3311721086502075, 12.807747840881348, -0.987060546875, -0.087646484375, -0.503662109375, 0, 
929, 1260097759, -0.29311659932136536, -0.5993908643722534, 0.39956822991371155, -0.6286166310310364, 0.9999996423721313, -0.00020891055464744568, -0.0001680087298154831, 0.0008225357159972191, 0.07407844066619873, -0.013035237789154053, -0.008340418338775635, 8.888318061828613, -1.5713614225387573, -1.0027027130126953, -2.8728418350219727, -2.3103790283203125, 11.31113338470459, -0.992919921875, -0.0859375, -0.502685546875, 0, 
930, 1260106092, -0.2926878333091736, -0.5991905927658081, 0.4000757932662964, -0.6286844611167908, 0.9999997615814209, -0.00008798763155937195, -0.00013045035302639008, 0.000709916464984417, 0.07494819164276123, -0.012529969215393066, -0.00811988115310669, 8.992929458618164, -1.5100473165512085, -0.9757495522499084, -1.2099649906158447, -1.7938928604125977, 9.762441635131836, -0.989990234375, -0.0859375, -0.502685546875, 0, 
931, 1260114425, -0.2922495901584625, -0.5990434288978577, 0.40054160356521606, -0.628731906414032, 0.9999997615814209, -0.000029902905225753784, -0.00019435398280620575, 0.0006892671808600426, 0.07762390375137329, -0.012634515762329102, -0.010488450527191162, 9.31396770477295, -1.5224968194961548, -1.2604944705963135, -0.41121092438697815, -2.672666072845459, 9.478483200073242, -0.989013671875, -0.085693359375, -0.501708984375, 0, 
932, 1260122758, -0.29180312156677246, -0.5989127159118652, 0.40105631947517395, -0.6287357211112976, 0.9999997615814209, -0.00008713267743587494, -0.0002218000590801239, 0.0006787898018956184, 0.07964718341827393, -0.012248694896697998, -0.012468814849853516, 9.556740760803223, -1.4761252403259277, -1.498518466949463, -1.1982083320617676, -3.0500919818878174, 9.334403991699219, -0.992431640625, -0.08203125, -0.501220703125, 0, 
933, 1260131091, -0.29144835472106934, -0.5987396836280823, 0.40160176157951355, -0.6287169456481934, 0.9999997615814209, -0.00016465410590171814, -0.00020538456737995148, 0.0006744591519236565, 0.08093905448913574, -0.01184999942779541, -0.010699927806854248, 9.711822509765625, -1.428544282913208, -1.2863242626190186, -2.264247179031372, -2.8243539333343506, 9.274850845336914, -0.992431640625, -0.07763671875, -0.506103515625, 0, 
934, 1260139424, -0.29107609391212463, -0.5985526442527771, 0.4022064805030823, -0.628680944442749, 0.9999997019767761, -0.00022055022418498993, -0.0002067331224679947, 0.0006970828399062157, 0.08256655931472778, -0.011318981647491455, -0.009280502796173096, 9.9072265625, -1.3648653030395508, -1.1160084009170532, -3.032905101776123, -2.8428986072540283, 9.585962295532227, -0.989013671875, -0.078857421875, -0.500244140625, 0, 
935, 1260147757, -0.29069480299949646, -0.5984037518501282, 0.40282687544822693, -0.6286019086837769, 0.9999997019767761, -0.00021364912390708923, -0.0002863742411136627, 0.0007082736119627953, 0.08209210634231567, -0.010989725589752197, -0.0076691508293151855, 9.85025405883789, -1.3255631923675537, -0.9234211444854736, -2.9380042552948, -3.93808650970459, 9.739852905273438, -0.991455078125, -0.078369140625, -0.501708984375, 0, 
936, 1260156090, -0.29019540548324585, -0.5983670353889465, 0.4035381078720093, -0.6284114122390747, 0.9999995827674866, -0.00022988207638263702, -0.0004757959395647049, 0.0007352428510785103, 0.08216160535812378, -0.0113372802734375, -0.008276164531707764, 9.858284950256348, -1.3676737546920776, -0.9982729554176331, -3.1612324714660645, -6.542927265167236, 10.110721588134766, -0.994873046875, -0.0751953125, -0.499755859375, 0, 
937, 1260164423, -0.2896156311035156, -0.5984399318695068, 0.40429073572158813, -0.6281256079673767, 0.999999463558197, -0.0001971665769815445, -0.0006661508232355118, 0.0007624970749020576, 0.08166462182998657, -0.011346280574798584, -0.009187638759613037, 9.798356056213379, -1.3689228296279907, -1.1094141006469727, -2.7113442420959473, -9.160599708557129, 10.485508918762207, -0.992431640625, -0.075439453125, -0.500244140625, 0, 
938, 1260172756, -0.2889051139354706, -0.5986261367797852, 0.4050840139389038, -0.6277641654014587, 0.9999993443489075, -0.000159410759806633, -0.0008271802216768265, 0.0007775621488690376, 0.0819939374923706, -0.012729346752166748, -0.011530697345733643, 9.837335586547852, -1.5349957942962646, -1.392102837562561, -2.192143440246582, -11.375001907348633, 10.69267749786377, -0.994140625, -0.072998046875, -0.493408203125, 0, 
939, 1260181089, -0.2881849706172943, -0.5988563299179077, 0.40580347180366516, -0.6274108290672302, 0.9999993443489075, -0.00007421150803565979, -0.0008508190512657166, 0.00074749905616045, 0.08222782611846924, -0.01554262638092041, -0.013316690921783447, 9.864990234375, -1.8724086284637451, -1.6065559387207031, -1.0205224752426147, -11.700072288513184, 10.279263496398926, -0.99755859375, -0.0712890625, -0.493896484375, 0, 
940, 1260189422, -0.28741544485092163, -0.5991173386573792, 0.40643900632858276, -0.6271031498908997, 0.9999994039535522, 0.00001828279346227646, -0.0008205752819776535, 0.0007053101435303688, 0.08087778091430664, -0.0193026065826416, -0.015396356582641602, 9.702589988708496, -2.3232316970825195, -1.8554974794387817, 0.2514166235923767, -11.284174919128418, 9.699101448059082, -0.995361328125, -0.070068359375, -0.494873046875, 0, 
941, 1260197755, -0.28667184710502625, -0.5993937253952026, 0.4069313406944275, -0.6268600225448608, 0.9999995231628418, 0.0001396695151925087, -0.0007550343871116638, 0.0006380723789334297, 0.07900238037109375, -0.02136296033859253, -0.01629108190536499, 9.477591514587402, -2.5698955059051514, -1.961716890335083, 1.920670986175537, -10.382884979248047, 8.7744779586792, -1.0029296875, -0.068359375, -0.492431640625, 0, 
942, 1260206088, -0.28579476475715637, -0.5997632741928101, 0.40730583667755127, -0.6266638040542603, 0.999999463558197, 0.0003228774294257164, -0.0007905326783657074, 0.0006042579188942909, 0.07756304740905762, -0.02298969030380249, -0.016664087772369385, 9.30466079711914, -2.765191078186035, -2.0062856674194336, 4.440061569213867, -10.871040344238281, 8.309475898742676, -0.998046875, -0.0693359375, -0.492919921875, 0, 
943, 1260214421, -0.28483906388282776, -0.6002030968666077, 0.40755483508110046, -0.6265161633491516, 0.9999994039535522, 0.0005028760060667992, -0.0008134376257658005, 0.0005830163136124611, 0.07660657167434692, -0.023002445697784424, -0.015492677688598633, 9.190037727355957, -2.7666847705841064, -1.865269660949707, 6.915319919586182, -11.186019897460938, 8.017372131347656, -0.99658203125, -0.0703125, -0.492919921875, 0, 
944, 1260222754, -0.28375425934791565, -0.6007382869720459, 0.4077138304710388, -0.6263919472694397, 0.9999992251396179, 0.0006591929122805595, -0.0008742716163396835, 0.0005580959841609001, 0.07627081871032715, -0.021246910095214844, -0.013726353645324707, 9.149979591369629, -2.5559651851654053, -1.6535874605178833, 9.064916610717773, -12.022581100463867, 7.674678802490234, -0.9990234375, -0.0673828125, -0.487548828125, 0, 
945, 1260231087, -0.28264355659484863, -0.6013335585594177, 0.4077838659286499, -0.6262773871421814, 0.9999991655349731, 0.0007628565654158592, -0.0008995048701763153, 0.0005151527002453804, 0.07668787240982056, -0.01922529935836792, -0.012047886848449707, 9.20040225982666, -2.3130176067352295, -1.4523690938949585, 10.490453720092773, -12.36957836151123, 7.084143161773682, -1.001953125, -0.06689453125, -0.489990234375, 0, 
946, 1260239420, -0.28152650594711304, -0.6019423604011536, 0.4078311324119568, -0.6261649131774902, 0.9999991655349731, 0.0007741926237940788, -0.0008948780596256256, 0.00048460904508829117, 0.07700902223587036, -0.016222059726715088, -0.010821938514709473, 9.239338874816895, -1.9522243738174438, -1.3054622411727905, 10.646340370178223, -12.305951118469238, 6.664120674133301, -1, -0.065185546875, -0.483642578125, 0, 
947, 1260247753, -0.2805068790912628, -0.6025406122207642, 0.4078662395477295, -0.6260241866111755, 0.9999992847442627, 0.0007183915004134178, -0.0008675325661897659, 0.0004258332774043083, 0.07645052671432495, -0.012284576892852783, -0.009613335132598877, 9.172786712646484, -1.4789783954620361, -1.160593867301941, 9.87899112701416, -11.929910659790039, 5.855864524841309, -1.0029296875, -0.06494140625, -0.484619140625, 0, 
948, 1260256086, -0.2795650064945221, -0.6031783223152161, 0.40791869163513184, -0.6257970333099365, 0.9999993443489075, 0.0006268536671996117, -0.0009120889008045197, 0.0003339657559990883, 0.07625710964202881, -0.009482026100158691, -0.009333014488220215, 9.149808883666992, -1.141661524772644, -1.1276655197143555, 8.620203018188477, -12.54262638092041, 4.592543125152588, -1.00244140625, -0.064453125, -0.483642578125, 0, 
949, 1260264419, -0.2787030041217804, -0.603884756565094, 0.4079377353191376, -0.6254879236221313, 0.9999993443489075, 0.0005941977724432945, -0.0009662006050348282, 0.0002255430445075035, 0.07725244760513306, -0.00847238302230835, -0.008405745029449463, 9.269454002380371, -1.0194257497787476, -1.0171046257019043, 8.171134948730469, -13.286746978759766, 3.101564407348633, -1.00341796875, -0.06494140625, -0.480712890625, 0, 
950, 1260272752, -0.2778764069080353, -0.604668140411377, 0.4079049229621887, -0.625120222568512, 0.9999992847442627, 0.0005939630791544914, -0.0010171383619308472, 0.00011186394840478897, 0.07792466878890991, -0.009069621562957764, -0.006998300552368164, 9.35035514831543, -1.0899461507797241, -0.8486994504928589, 8.167906761169434, -13.987218856811523, 1.5383014678955078, -1.0068359375, -0.0654296875, -0.475341796875, 0, 
951, 1260281085, -0.2771333158016205, -0.605513334274292, 0.40777915716171265, -0.6247137784957886, 0.9999992847442627, 0.0006125243380665779, -0.0010216496884822845, -0.00001932866871356964, 0.07917129993438721, -0.011465013027191162, -0.006568849086761475, 9.500147819519043, -1.3761595487594604, -0.7972267866134644, 8.423152923583984, -14.049257278442383, -0.265798956155777, -1.00732421875, -0.06591796875, -0.475341796875, 0, 
952, 1260289418, -0.2764560282230377, -0.6063646078109741, 0.4075165092945099, -0.6243594884872437, 0.9999993443489075, 0.0006715478375554085, -0.0009267237037420273, -0.00014458037912845612, 0.08037596940994263, -0.013998448848724365, -0.0072550177574157715, 9.644929885864258, -1.6790666580200195, -0.8785087466239929, 9.234816551208496, -12.743878364562988, -1.9882025718688965, -1.0078125, -0.0673828125, -0.472900390625, 0, 
953, 1260297751, -0.27581027150154114, -0.6072237491607666, 0.40716078877449036, -0.6240421533584595, 0.9999993443489075, 0.000737885944545269, -0.0008723940700292587, -0.00019965507090091705, 0.08038967847824097, -0.01683974266052246, -0.007728278636932373, 9.646739959716797, -2.019613265991211, -0.934333324432373, 10.147067070007324, -11.9967622756958, -2.7455644607543945, -1.009521484375, -0.06982421875, -0.471435546875, 0, 
954, 1260306084, -0.27512991428375244, -0.6080660820007324, 0.40675029158592224, -0.62378990650177, 0.9999993443489075, 0.0008048200979828835, -0.0008196178823709488, -0.00020053237676620483, 0.07907533645629883, -0.018385350704193115, -0.006262719631195068, 9.489242553710938, -2.205023765563965, -0.7576082348823547, 11.06751537322998, -11.271008491516113, -2.757628917694092, -1.005126953125, -0.06689453125, -0.468994140625, 0, 
955, 1260314417, -0.27448517084121704, -0.6088545322418213, 0.4063365161418915, -0.6235745549201965, 0.9999994039535522, 0.0007949555292725563, -0.0007493216544389725, -0.00017946213483810425, 0.07842916250228882, -0.018064260482788086, -0.009010910987854004, 9.411454200744629, -2.1669721603393555, -1.0866656303405762, 10.931862831115723, -10.304327011108398, -2.4678804874420166, -1.008056640625, -0.06884765625, -0.465576171875, 0, 
956, 1260322750, -0.27392342686653137, -0.6095443964004517, 0.4058738052845001, -0.6234488487243652, 0.9999995231628418, 0.0007747756317257881, -0.0005850587040185928, -0.0002095252275466919, 0.0786205530166626, -0.016374289989471436, -0.008513152599334717, 9.43465805053711, -1.9638127088546753, -1.0256048440933228, 10.65435791015625, -8.04545783996582, -2.8812944889068604, -1.008544921875, -0.0712890625, -0.465087890625, 0, 
957, 1260331083, -0.2733798921108246, -0.610181450843811, 0.4053204655647278, -0.6234242916107178, 0.9999995231628418, 0.0008555399253964424, -0.000458570197224617, -0.00021509826183319092, 0.07885628938674927, -0.014394164085388184, -0.005514085292816162, 9.463200569152832, -1.7259076833724976, -0.6645642518997192, 11.764991760253906, -6.306046485900879, -2.957932233810425, -1.008544921875, -0.0703125, -0.465576171875, 0, 
958, 1260339416, -0.2728300392627716, -0.6107997894287109, 0.40467673540115356, -0.6234779357910156, 0.999999463558197, 0.0009335437789559364, -0.00037665851414203644, -0.0002492796629667282, 0.07924091815948486, -0.011886417865753174, -0.0031210780143737793, 9.509502410888672, -1.4244118928909302, -0.37678954005241394, 12.837665557861328, -5.1796345710754395, -3.4279792308807373, -1.006591796875, -0.06884765625, -0.464599609375, 0, 
959, 1260347749, -0.2723049521446228, -0.6114374995231628, 0.40394362807273865, -0.6235578656196594, 0.9999994039535522, 0.0009982148185372353, -0.00033826567232608795, -0.00030860118567943573, 0.0783156156539917, -0.008851945400238037, -0.001312255859375, 9.398520469665527, -1.0595650672912598, -0.15957172214984894, 13.726991653442383, -4.651673793792725, -4.243741512298584, -1.010986328125, -0.0693359375, -0.460205078125, 0, 
960, 1260356082, -0.27176210284233093, -0.6121088862419128, 0.40312814712524414, -0.6236638426780701, 0.9999992847442627, 0.0010719476267695427, -0.0003280993551015854, -0.0003656744956970215, 0.07768446207046509, -0.007461905479431152, -0.0030260682106018066, 9.32271671295166, -0.892423152923584, -0.3652581572532654, 14.740931510925293, -4.511871337890625, -5.028587818145752, -1.009521484375, -0.07275390625, -0.463623046875, 0, 
961, 1260364415, -0.27113214135169983, -0.6128865480422974, 0.4022703170776367, -0.6237277984619141, 0.9999991655349731, 0.0011726869270205498, -0.0004447009414434433, -0.00037942081689834595, 0.07664823532104492, -0.007264554500579834, -0.0013578534126281738, 9.19841480255127, -0.8684613704681396, -0.1660391390323639, 16.126253128051758, -6.115323066711426, -5.217620849609375, -1.009033203125, -0.07470703125, -0.460205078125, 0, 
962, 1260372748, -0.27029743790626526, -0.6138063073158264, 0.4013739228248596, -0.6237630844116211, 0.9999988675117493, 0.0013402653858065605, -0.0006217192858457565, -0.0003523658961057663, 0.07714998722076416, -0.008765041828155518, -0.0026780366897583008, 9.258537292480469, -1.0490323305130005, -0.3257018029689789, 18.43071937561035, -8.549599647521973, -4.845575332641602, -1.008544921875, -0.07666015625, -0.457763671875, 0, 
963, 1260381081, -0.2694016695022583, -0.6148141026496887, 0.40039923787117004, -0.6237847805023193, 0.9999986290931702, 0.0014549372717738152, -0.0006902050226926804, -0.000387679785490036, 0.078055739402771, -0.009776532649993896, -0.005282044410705566, 9.36707878112793, -1.1705256700515747, -0.6386272311210632, 20.007633209228516, -9.49138355255127, -5.33119535446167, -1.009521484375, -0.07861328125, -0.458251953125, 0, 
964, 1260389414, -0.26850971579551697, -0.6158159971237183, 0.3993578851222992, -0.623848557472229, 0.9999985694885254, 0.001499422825872898, -0.0006394442170858383, -0.00043113715946674347, 0.07775133848190308, -0.011250734329223633, -0.005913734436035156, 9.330660820007324, -1.3471977710723877, -0.7136035561561584, 20.6193790435791, -8.79334545135498, -5.928802013397217, -1.010498046875, -0.0810546875, -0.457763671875, 0, 
965, 1260397747, -0.2676379084587097, -0.6168287992477417, 0.3982967436313629, -0.6239008903503418, 0.9999985694885254, 0.0015090340748429298, -0.0006420742720365524, -0.0004484429955482483, 0.07628804445266724, -0.013460218906402588, -0.0046086907386779785, 9.15530014038086, -1.6120213270187378, -0.5565077662467957, 20.75154685974121, -8.829511642456055, -6.166782855987549, -1.01220703125, -0.080078125, -0.45361328125, 0, 
966, 1260406080, -0.26671475172042847, -0.61786288022995, 0.3973347842693329, -0.6238863468170166, 0.9999986290931702, 0.001446581445634365, -0.0007414054125547409, -0.0003963541239500046, 0.07458126544952393, -0.014858841896057129, -0.004493772983551025, 8.950414657592773, -1.7803648710250854, -0.5433350205421448, 19.892730712890625, -10.195469856262207, -5.450481414794922, -1.01123046875, -0.080078125, -0.45263671875, 0, 
967, 1260414413, -0.26576313376426697, -0.6188621520996094, 0.39654022455215454, -0.6238076686859131, 0.9999987483024597, 0.0013362308964133263, -0.0008173994719982147, -0.00026356615126132965, 0.07347816228866577, -0.01490408182144165, -0.006311774253845215, 8.817581176757812, -1.7872464656829834, -0.7622807025909424, 18.3752384185791, -11.240503311157227, -3.624441146850586, -1.0126953125, -0.0830078125, -0.44873046875, 0, 
968, 1260422746, -0.26479557156562805, -0.6197761297225952, 0.39592158794403076, -0.6237047910690308, 0.999998927116394, 0.0011927606537938118, -0.0008300859481096268, -0.0001323167234659195, 0.07307660579681396, -0.014514327049255371, -0.008979856967926025, 8.768881797790527, -1.741914987564087, -1.0827951431274414, 16.402297973632812, -11.414962768554688, -1.8195592164993286, -1.01220703125, -0.08447265625, -0.453125, 0, 
969, 1260431079, -0.26383769512176514, -0.6206020712852478, 0.39534711837768555, -0.6236538290977478, 0.9999990463256836, 0.0011673597618937492, -0.0007532071322202682, -0.00004821456968784332, 0.07221776247024536, -0.014037668704986572, -0.010075271129608154, 8.665644645690918, -1.6855851411819458, -1.2136526107788086, 16.052993774414062, -10.357758522033691, -0.6630246043205261, -1.01220703125, -0.083984375, -0.447265625, 0, 
970, 1260439412, -0.2628004848957062, -0.6214513182640076, 0.3947354853153229, -0.623633623123169, 0.999998927116394, 0.0012471852824091911, -0.0007677804678678513, -0.00003699213266372681, 0.06855130195617676, -0.014085233211517334, -0.00790470838546753, 8.225818634033203, -1.6911758184432983, -0.95280921459198, 17.15072250366211, -10.558165550231934, -0.5086988806724548, -1.01220703125, -0.0859375, -0.4423828125, 0, 
971, 1260447745, -0.26170632243156433, -0.6223878860473633, 0.39402705430984497, -0.6236075758934021, 0.9999986886978149, 0.0013732602819800377, -0.0008241087198257446, -0.00008429773151874542, 0.06901544332504272, -0.015957951545715332, -0.0059548020362854, 8.281757354736328, -1.9153145551681519, -0.7187853455543518, 18.884449005126953, -11.33276653289795, -1.1592239141464233, -1.0126953125, -0.0908203125, -0.44384765625, 0, 
972, 1260456078, -0.26046302914619446, -0.6234655380249023, 0.39309602975845337, -0.6236390471458435, 0.9999982118606567, 0.001654881052672863, -0.000875767320394516, -0.00018368475139141083, 0.0655248761177063, -0.01628696918487549, -0.003649473190307617, 7.863274097442627, -1.9537954330444336, -0.4416140019893646, 22.757171630859375, -12.043153762817383, -2.525949239730835, -1.014892578125, -0.08935546875, -0.43798828125, 0, 
973, 1260464411, -0.2589525878429413, -0.6248174905776978, 0.39209413528442383, -0.62354576587677, 0.9999974370002747, 0.001890980638563633, -0.0012106653302907944, -0.00018924474716186523, 0.0637548565864563, -0.014451265335083008, -0.0017024874687194824, 7.650967121124268, -1.7331655025482178, -0.2102777510881424, 26.0039119720459, -16.648521423339844, -2.6024084091186523, -1.014892578125, -0.08740234375, -0.4375, 0, 
974, 1260472744, -0.25709226727485657, -0.6264500617980957, 0.39113375544548035, -0.6232807636260986, 0.9999964833259583, 0.002086061052978039, -0.0016411077231168747, -0.00011204555630683899, 0.06486701965332031, -0.013561666011810303, -0.0041321516036987305, 7.783716201782227, -1.6276336908340454, -0.5052650570869446, 28.68657875061035, -22.567779541015625, -1.5408004522323608, -1.018310546875, -0.09033203125, -0.43798828125, 0, 
975, 1260481077, -0.25497400760650635, -0.6282922029495239, 0.3902316391468048, -0.622861921787262, 0.9999955892562866, 0.0022044768556952477, -0.0019839033484458923, -0.00002469681203365326, 0.06685972213745117, -0.01198875904083252, -0.007672607898712158, 8.021688461303711, -1.4405485391616821, -0.933487057685852, 30.31498908996582, -27.281761169433594, -0.33961960673332214, -1.015380859375, -0.09375, -0.43115234375, 0, 
976, 1260489410, -0.2527526915073395, -0.63017737865448, 0.38948145508766174, -0.6223322749137878, 0.9999953508377075, 0.002142920158803463, -0.002159440889954567, 0.00007835496217012405, 0.07179689407348633, -0.007104694843292236, -0.008672893047332764, 8.613642692565918, -0.8555167317390442, -1.0575765371322632, 29.468488693237305, -29.695674896240234, 1.0775028467178345, -1.017333984375, -0.09423828125, -0.423828125, 0, 
977, 1260497743, -0.2503822147846222, -0.6320043802261353, 0.3887900710105896, -0.6218699216842651, 0.9999951720237732, 0.0022255470976233482, -0.0021567773073911667, 0.00025793444365262985, 0.07561033964157104, -0.004565775394439697, -0.013576507568359375, 9.069930076599121, -0.5539038777351379, -1.6476168632507324, 30.604745864868164, -29.6590518951416, 3.5470011234283447, -1.017822265625, -0.09423828125, -0.42041015625, 0, 
978, 1260506076, -0.24801623821258545, -0.6335901618003845, 0.3881679177284241, -0.6215929388999939, 0.9999957084655762, 0.0021776603534817696, -0.0019021965563297272, 0.0004292028024792671, 0.0805472731590271, -0.0051673054695129395, -0.018403708934783936, 9.661575317382812, -0.6290797591209412, -2.2255778312683105, 29.946224212646484, -26.15816307067871, 5.902206897735596, -1.02099609375, -0.095703125, -0.4150390625, 0, 
979, 1260514409, -0.24591602385044098, -0.6347479224205017, 0.38759762048721313, -0.6216019988059998, 0.9999969005584717, 0.0020104004070162773, -0.0013693440705537796, 0.0005441987887024879, 0.08152240514755249, -0.005025088787078857, -0.019223809242248535, 9.779593467712402, -0.6129814386367798, -2.3190977573394775, 27.646127700805664, -18.83060646057129, 7.483577728271484, -1.021484375, -0.09326171875, -0.412109375, 0, 
