PacketCounter,SampleTimeFine,Quat_W,Quat_X,Quat_Y,Quat_Z,dq_W,dq_X,dq_Y,dq_Z,dv[1],dv[2],dv[3],Acc_X,Acc_Y,Acc_Z,Gyr_X,Gyr_Y,Gyr_Z,Mag_X,Mag_Y,Mag_Z,Status,
0, 3881233850, 0.25390297174453735, 0.5836894512176514, -0.2576757073402405, 0.7269413471221924, 0, 0, 0, 0, 0, 0, 0, 0, 0, 0, 0, 0, 0, -0.976806640625, -0.204833984375, -0.42578125, 0, 
1, 3881242183, 0.25473037362098694, 0.584530770778656, -0.25654923915863037, 0.7263740301132202, 0.9999985098838806, 0.0004033045843243599, -0.0004435684531927109, -0.0016199126839637756, 0.07922333478927612, -0.005732119083404541, 0.01812344789505005, 9.509247779846191, -0.6716212034225464, 2.1709628105163574, 5.546060562133789, -6.0997514724731445, -22.27629852294922, -0.977783203125, -0.209716796875, -0.42333984375, 0, 
2, 3881250516, 0.2555742859840393, 0.585438072681427, -0.25541889667510986, 0.7257449626922607, 0.9999983906745911, 0.00039755459874868393, -0.0005222577601671219, -0.0016666390001773834, 0.07890307903289795, -0.00625842809677124, 0.018290698528289795, 9.471142768859863, -0.7343343496322632, 2.1903076171875, 5.466989994049072, -7.181850910186768, -22.918859481811523, -0.9755859375, -0.216552734375, -0.4228515625, 0, 
3, 3881258849, 0.2567729949951172, 0.5855953097343445, -0.25314563512802124, 0.7259911298751831, 0.9999982118606567, 0.0005335425958037376, -0.000662531703710556, -0.0016847196966409683, 0.08008497953414917, -0.0067705512046813965, 0.018134355545043945, 9.613391876220703, -0.7950756549835205, 2.1702475547790527, 7.337035179138184, -9.110835075378418, -23.167499542236328, -0.9765625, -0.213623046875, -0.4208984375, 0, 
4, 3881267182, 0.2573648989200592, 0.5866801142692566, -0.2519252598285675, 0.7253299355506897, 0.9999982714653015, 0.0006504757329821587, -0.0007116440683603287, -0.001588793471455574, 0.08253699541091919, -0.00671839714050293, 0.01875370740890503, 9.907710075378418, -0.7890228033065796, 2.2440004348754883, 8.945046424865723, -9.786205291748047, -21.848363876342773, -0.97509765625, -0.216552734375, -0.419921875, 0, 
5, 3881275515, 0.25817620754241943, 0.5848718881607056, -0.24996764957904816, 0.7271769046783447, 0.9999985098838806, 0.0006774840876460075, -0.0006895549595355988, -0.0014172159135341644, 0.08497428894042969, -0.007993996143341064, 0.020895063877105713, 10.200407981872559, -0.9431263208389282, 2.501105546951294, 9.316452026367188, -9.482444763183594, -19.488906860351562, -0.97509765625, -0.221923828125, -0.41796875, 0, 
6, 3881283848, 0.25851455330848694, 0.5857501029968262, -0.24899877607822418, 0.7266821265220642, 0.9999989867210388, 0.0006096875295042992, -0.000593237578868866, -0.0011600367724895477, 0.0867583155632019, -0.008662223815917969, 0.02390843629837036, 10.41429615020752, -1.0257679224014282, 2.8636155128479004, 8.384143829345703, -8.157931327819824, -15.952292442321777, -0.9755859375, -0.224365234375, -0.4130859375, 0, 
7, 3881292181, 0.25811678171157837, 0.5829874873161316, -0.24772317707538605, 0.7294756174087524, 0.999999463558197, 0.00041066762059926987, -0.00043830834329128265, -0.0008320994675159454, 0.08698350191116333, -0.008610963821411133, 0.027096688747406006, 10.44069766998291, -1.0234315395355225, 3.247619152069092, 5.647313117980957, -6.027415752410889, -11.44265079498291, -0.97216796875, -0.230224609375, -0.4150390625, 0, 
8, 3881300514, 0.25838467478752136, 0.5832793712615967, -0.24741105735301971, 0.7292532920837402, 0.9999998211860657, 0.00009167473763227463, -0.0001955851912498474, -0.0005070995539426804, 0.08670765161514282, -0.0061528682708740234, 0.02969372272491455, 10.406384468078613, -0.7328771352767944, 3.5614590644836426, 1.2606685161590576, -2.6895971298217773, -6.973398208618164, -0.97265625, -0.230712890625, -0.4111328125, 0, 
9, 3881308847, 0.2578705847263336, 0.5782033205032349, -0.2466575652360916, 0.7337192893028259, 0.9999999403953552, -0.00029211677610874176, 0.000012882985174655914, -0.00029380805790424347, 0.08403652906417847, -0.0023803114891052246, 0.028936803340911865, 10.084827423095703, -0.2836208641529083, 3.4726037979125977, -4.017055034637451, 0.17716087400913239, -4.040312767028809, -0.97265625, -0.226318359375, -0.41357421875, 0, 
10, 3881317180, 0.25845569372177124, 0.577987551689148, -0.24699895083904266, 0.7335686087608337, 0.9999997615814209, -0.0006817150861024857, 0.0001275455579161644, -0.0002175755798816681, 0.08259844779968262, 0.0011804699897766113, 0.029133498668670654, 9.911725044250488, 0.14143140614032745, 3.4975409507751465, -9.374629974365234, 1.7539474964141846, -2.9919986724853516, -0.97216796875, -0.229248046875, -0.41650390625, 0, 
11, 3881325513, 0.259907990694046, 0.5722782015800476, -0.24524182081222534, 0.7381071448326111, 0.9999993443489075, -0.0010707657784223557, 0.00018075015395879745, -0.0002990551292896271, 0.08260047435760498, 0.0033789873123168945, 0.02959543466567993, 9.911683082580566, 0.4046468436717987, 3.553842782974243, -14.724678993225098, 2.485592842102051, -4.112468242645264, -0.9697265625, -0.2275390625, -0.4130859375, 0, 
12, 3881333846, 0.2611284554004669, 0.5718904137611389, -0.24592924118041992, 0.7377480864524841, 0.9999988675117493, -0.0013946276158094406, 0.00020135100930929184, -0.0005057826638221741, 0.08276969194412231, 0.0045806169509887695, 0.027623891830444336, 9.931817054748535, 0.5500940680503845, 3.317758560180664, -19.178279876708984, 2.7688868045806885, -6.955291271209717, -0.97509765625, -0.230224609375, -0.416015625, 0, 
13, 3881342179, 0.26531803607940674, 0.5670571327209473, -0.2430715560913086, 0.7409242987632751, 0.9999982714653015, -0.0016614850610494614, 0.0002114204689860344, -0.0008187312632799149, 0.08303731679916382, 0.004621267318725586, 0.025698482990264893, 9.963765144348145, 0.5576165318489075, 3.0869803428649902, -22.847986221313477, 2.907357931137085, -11.258819580078125, -0.970703125, -0.231201171875, -0.416015625, 0, 
14, 3881350512, 0.26733338832855225, 0.5666617751121521, -0.2437940239906311, 0.7402647137641907, 0.9999974370002747, -0.0019433777779340744, 0.00021698232740163803, -0.0011624470353126526, 0.08187144994735718, 0.002981841564178467, 0.0255928635597229, 9.823881149291992, 0.3632965683937073, 3.0741026401519775, -26.724456787109375, 2.9838430881500244, -15.985447883605957, -0.970703125, -0.230224609375, -0.41748046875, 0, 
15, 3881358845, 0.2727222740650177, 0.5633859634399414, -0.24052950739860535, 0.7418655157089233, 0.9999964833259583, -0.002209162339568138, 0.0001761382445693016, -0.001476626843214035, 0.07850873470306396, -0.0008065104484558105, 0.0245133638381958, 9.421046257019043, -0.08937204629182816, 2.9431726932525635, -30.379417419433594, 2.422175168991089, -20.30591583251953, -0.96630859375, -0.23193359375, -0.41650390625, 0, 
16, 3881367178, 0.2753615975379944, 0.5630742907524109, -0.24135254323482513, 0.7408592104911804, 0.9999956488609314, -0.002424631267786026, 0.0000744527205824852, -0.001693839207291603, 0.07561475038528442, -0.005534768104553223, 0.02260226011276245, 9.075052261352539, -0.6553954482078552, 2.7114508152008057, -33.34245681762695, 1.0238410234451294, -23.29292869567871, -0.962890625, -0.2333984375, -0.42333984375, 0, 
17, 3881375511, 0.2806105613708496, 0.5607526898384094, -0.23887304961681366, 0.7414538860321045, 0.999995231628418, -0.0025167055428028107, -0.000002985820174217224, -0.001804562285542488, 0.07413977384567261, -0.01113593578338623, 0.020237207412719727, 8.899542808532715, -1.326411485671997, 2.425178050994873, -34.60862731933594, -0.04105968773365021, -24.815547943115234, -0.96728515625, -0.236083984375, -0.42236328125, 0, 
18, 3881383844, 0.2833297550678253, 0.5605251789093018, -0.23969750106334686, 0.7403249144554138, 0.9999952912330627, -0.002469649538397789, -0.000046389177441596985, -0.0018162429332733154, 0.07368582487106323, -0.016680896282196045, 0.019533812999725342, 8.846385955810547, -1.9915235042572021, 2.3388125896453857, -33.96153259277344, -0.6379234790802002, -24.976171493530273, -0.96435546875, -0.23291015625, -0.42529296875, 0, 
19, 3881392177, 0.2871469557285309, 0.558662474155426, -0.23876911401748657, 0.7405622005462646, 0.999995768070221, -0.002314528450369835, -0.00007931329309940338, -0.0017500370740890503, 0.07393306493759155, -0.020644664764404297, 0.01957768201828003, 8.87684154510498, -2.4673523902893066, 2.3429794311523438, -31.828367233276367, -1.0906811952590942, -24.06573486328125, -0.9658203125, -0.237548828125, -0.42724609375, 0, 
20, 3881400510, 0.28953680396080017, 0.5585626363754272, -0.23934388160705566, 0.7395207285881042, 0.9999964237213135, -0.002038249745965004, -0.00010260380804538727, -0.0017238892614841461, 0.07414710521697998, -0.02224665880203247, 0.02073371410369873, 8.902851104736328, -2.6594512462615967, 2.4818100929260254, -28.029098510742188, -1.4109617471694946, -23.70615577697754, -0.96142578125, -0.24169921875, -0.427734375, 0, 
21, 3881408843, 0.29155784845352173, 0.5569760799407959, -0.2398708313703537, 0.739752471446991, 0.999997079372406, -0.001717815175652504, -0.0001503564417362213, -0.0017088688910007477, 0.0738411545753479, -0.022883176803588867, 0.021751582622528076, 8.866375923156738, -2.735412359237671, 2.604243040084839, -23.62262535095215, -2.067634344100952, -23.49959945678711, -0.95947265625, -0.2431640625, -0.4296875, 0, 
22, 3881417176, 0.2935509979724884, 0.5571300983428955, -0.23999713361263275, 0.7388067841529846, 0.9999975562095642, -0.001385631039738655, -0.0001997966319322586, -0.001716693863272667, 0.07491260766983032, -0.021743178367614746, 0.022559940814971924, 8.99489688873291, -2.597573757171631, 2.701883316040039, -19.0545711517334, -2.7475125789642334, -23.607196807861328, -0.96240234375, -0.245361328125, -0.43212890625, 0, 
23, 3881425509, 0.29434657096862793, 0.5556080341339111, -0.2412901073694229, 0.7392151951789856, 0.9999977946281433, -0.0011289473623037338, -0.00012884289026260376, -0.001769108697772026, 0.07468461990356445, -0.0196799635887146, 0.021902382373809814, 8.967010498046875, -2.3488268852233887, 2.6245830059051514, -15.524776458740234, -1.7717894315719604, -24.327985763549805, -0.95849609375, -0.24609375, -0.43017578125, 0, 
24, 3881433842, 0.29621201753616333, 0.5558192133903503, -0.24095015227794647, 0.7384216785430908, 0.9999978542327881, -0.0009145345538854599, -0.0000472385436296463, -0.0018523111939430237, 0.0737256407737732, -0.015872657299041748, 0.02133709192276001, 8.851064682006836, -1.8907718658447266, 2.5584018230438232, -12.576265335083008, -0.6496031284332275, -25.47214698791504, -0.958984375, -0.25048828125, -0.43017578125, 0, 
25, 3881442175, 0.2965370714664459, 0.5542829632759094, -0.2423791140317917, 0.7389780282974243, 0.9999978542327881, -0.0007529314607381821, 0.00008377712219953537, -0.0019196048378944397, 0.07313722372055054, -0.011301100254058838, 0.02009958028793335, 8.779210090637207, -1.3411420583724976, 2.411764144897461, -10.353971481323242, 1.1520650386810303, -26.39753532409668, -0.95361328125, -0.2509765625, -0.43115234375, 0, 
26, 3881450508, 0.298382043838501, 0.5544114708900452, -0.24170789122581482, 0.7383584976196289, 0.9999978542327881, -0.0006387084722518921, 0.00020729657262563705, -0.0019502174109220505, 0.07197892665863037, -0.006646215915679932, 0.019916772842407227, 8.63886833190918, -0.7822313904762268, 2.3913955688476562, -8.783228874206543, 2.8506484031677246, -26.818504333496094, -0.9541015625, -0.25390625, -0.4345703125, 0, 
27, 3881458841, 0.298696368932724, 0.5530004501342773, -0.24297714233398438, 0.7388728857040405, 0.9999979138374329, -0.0006264150142669678, 0.00027407240122556686, -0.0019158944487571716, 0.07121807336807251, -0.003516674041748047, 0.018699824810028076, 8.546693801879883, -0.407033771276474, 2.24615216255188, -8.614175796508789, 3.7689201831817627, -26.346513748168945, -0.951171875, -0.2607421875, -0.43212890625, 0, 
28, 3881467174, 0.30043643712997437, 0.5529834032058716, -0.24235139787197113, 0.7383854389190674, 0.999998152256012, -0.0006234440952539444, 0.0003522941842675209, -0.0017733220010995865, 0.07021927833557129, -0.0017852187156677246, 0.018339574337005615, 8.42624568939209, -0.20063406229019165, 2.203680992126465, -8.573319435119629, 4.8445892333984375, -24.38591766357422, -0.95068359375, -0.25927734375, -0.43359375, 0, 
29, 3881475507, 0.30084365606307983, 0.5518273115158081, -0.24343053996562958, 0.73872971534729, 0.9999983906745911, -0.0006495397537946701, 0.00030069705098867416, -0.001628844067454338, 0.06952124834060669, -0.00021404027938842773, 0.017525136470794678, 8.34228801727295, -0.013488158583641052, 2.1055896282196045, -8.932173728942871, 4.135048866271973, -22.399120330810547, -0.94970703125, -0.26123046875, -0.4365234375, 0, 
30, 3881483840, 0.3023955821990967, 0.5518475770950317, -0.24308623373508453, 0.7381942868232727, 0.9999985694885254, -0.0007262490689754486, 0.00017033610492944717, -0.0015026871114969254, 0.07081079483032227, 0.0007899999618530273, 0.01649242639541626, 8.497151374816895, 0.10608232021331787, 1.980682134628296, -9.987046241760254, 2.3423845767974854, -20.664270401000977, -0.9521484375, -0.2646484375, -0.43408203125, 0, 
31, 3881492173, 0.30297598242759705, 0.5511521697044373, -0.24411800503730774, 0.7381352186203003, 0.9999986290931702, -0.0008338410407304764, -0.0000018775463104248047, -0.0014312677085399628, 0.07478201389312744, 0.0010191798210144043, 0.016175568103790283, 8.974024772644043, 0.13352403044700623, 1.941233515739441, -11.46660041809082, -0.02581915631890297, -19.682140350341797, -0.943359375, -0.2705078125, -0.43505859375, 0, 
32, 3881500506, 0.3044697344303131, 0.5513095259666443, -0.24405312538146973, 0.7374241352081299, 0.9999986290931702, -0.0009012371301651001, -0.00012435764074325562, -0.0013926438987255096, 0.07750540971755981, 0.001259446144104004, 0.016718387603759766, 9.301054954528809, 0.16230277717113495, 2.0052683353424072, -12.393400192260742, -1.7101092338562012, -19.151002883911133, -0.94921875, -0.2666015625, -0.43701171875, 0, 
33, 3881508839, 0.30519023537635803, 0.5511208176612854, -0.24495954811573029, 0.7369664311408997, 0.9999984502792358, -0.0010203532874584198, -0.0002818834036588669, -0.001391405239701271, 0.07895368337631226, 0.0018603205680847168, 0.01710587739944458, 9.47508430480957, 0.23438452184200287, 2.050337791442871, -14.03143310546875, -3.8763322830200195, -19.133970260620117, -0.94580078125, -0.271484375, -0.4375, 0, 
34, 3881517172, 0.3067653179168701, 0.5514242649078369, -0.24517911672592163, 0.7360118627548218, 0.9999982118606567, -0.001170910894870758, -0.0004314593970775604, -0.0014059748500585556, 0.08020514249801636, 0.002546846866607666, 0.01616227626800537, 9.625404357910156, 0.3169369399547577, 1.9357465505599976, -16.10183334350586, -5.93323278427124, -19.33432388305664, -0.94482421875, -0.271484375, -0.43603515625, 0, 
35, 3881525505, 0.3078681528568268, 0.5516038537025452, -0.24621076881885529, 0.735072135925293, 0.9999979734420776, -0.001301610842347145, -0.000569906085729599, -0.0014254748821258545, 0.08187919855117798, 0.0031423568725585938, 0.014772772789001465, 9.826361656188965, 0.3888057470321655, 1.7676970958709717, -17.89916229248047, -7.837090492248535, -19.60248565673828, -0.9453125, -0.275390625, -0.4345703125, 0, 
36, 3881533838, 0.30951935052871704, 0.5520173907279968, -0.24665307998657227, 0.7339190244674683, 0.9999977946281433, -0.0013924483209848404, -0.0006703529506921768, -0.0014273300766944885, 0.08327800035476685, 0.00304335355758667, 0.013673484325408936, 9.994328498840332, 0.3771592974662781, 1.634718418121338, -19.1483211517334, -9.218390464782715, -19.628000259399414, -0.9423828125, -0.27490234375, -0.439453125, 0, 
37, 3881542171, 0.31098243594169617, 0.5524245500564575, -0.24784310162067413, 0.7325918674468994, 0.999997615814209, -0.001502886414527893, -0.0007163900882005692, -0.0014020167291164398, 0.08464008569717407, 0.002643406391143799, 0.013038873672485352, 10.157886505126953, 0.32911673188209534, 1.557931900024414, -20.66701316833496, -9.851471900939941, -19.27989959716797, -0.94140625, -0.28173828125, -0.4365234375, 0, 
38, 3881550504, 0.31270596385002136, 0.5527878403663635, -0.2484687864780426, 0.731371283531189, 0.9999974966049194, -0.001599939540028572, -0.0007085874676704407, -0.0013874415308237076, 0.0850256085395813, 0.0014604926109313965, 0.013043344020843506, 10.204339027404785, 0.18689925968647003, 1.5583336353302002, -22.00164794921875, -9.744175910949707, -19.079471588134766, -0.94091796875, -0.27734375, -0.43896484375, 0, 
39, 3881558837, 0.31469258666038513, 0.5532646179199219, -0.24995820224285126, 0.7296491861343384, 0.9999971985816956, -0.001750035211443901, -0.0007462706416845322, -0.0014230236411094666, 0.08622777462005615, -0.0010214447975158691, 0.014191031455993652, 10.349180221557617, -0.11085262149572372, 1.6950784921646118, -24.065698623657227, -10.262378692626953, -19.568782806396484, -0.93896484375, -0.27880859375, -0.4365234375, 0, 
40, 3881567170, 0.316540002822876, 0.5536574125289917, -0.2507376968860626, 0.7282833456993103, 0.9999969601631165, -0.0018086042255163193, -0.0008264351636171341, -0.001445576548576355, 0.08938145637512207, -0.003979504108428955, 0.015299797058105469, 10.72840404510498, -0.46535542607307434, 1.8263177871704102, -24.871110916137695, -11.364764213562012, -19.87891960144043, -0.939453125, -0.28076171875, -0.43896484375, 0, 
41, 3881575503, 0.31831255555152893, 0.5544382333755493, -0.25202837586402893, 0.7264689803123474, 0.9999970197677612, -0.0017543770372867584, -0.0008595827966928482, -0.0014651305973529816, 0.09270185232162476, -0.006271660327911377, 0.014541208744049072, 11.12725830078125, -0.7393904328346252, 1.7341440916061401, -24.125404357910156, -11.820595741271973, -20.147817611694336, -0.94189453125, -0.28125, -0.4375, 0, 
42, 3881583836, 0.32007527351379395, 0.5549025535583496, -0.25270384550094604, 0.725104033946991, 0.9999971985816956, -0.0016641691327095032, -0.0008653607219457626, -0.0014584362506866455, 0.09476613998413086, -0.008073866367340088, 0.014091074466705322, 11.375249862670898, -0.9551539421081543, 1.6795754432678223, -22.884906768798828, -11.900052070617676, -20.055761337280273, -0.9404296875, -0.2822265625, -0.4365234375, 0, 
43, 3881592169, 0.32165393233299255, 0.5557857155799866, -0.2539063096046448, 0.7233067750930786, 0.9999973773956299, -0.001562429592013359, -0.0008474085479974747, -0.001441245898604393, 0.09554082155227661, -0.008845746517181396, 0.013707458972930908, 11.46827507019043, -1.0475471019744873, 1.6335744857788086, -21.485828399658203, -11.653182029724121, -19.819366455078125, -0.93798828125, -0.28369140625, -0.4365234375, 0, 
44, 3881600502, 0.3232441842556, 0.5562635660171509, -0.2544264793395996, 0.7220464944839478, 0.9999976754188538, -0.0014261603355407715, -0.0008100736886262894, -0.0013886913657188416, 0.09538966417312622, -0.00861269235610962, 0.013569653034210205, 11.449962615966797, -1.0199817419052124, 1.6176801919937134, -19.61191177368164, -11.139766693115234, -19.096656799316406, -0.9375, -0.28662109375, -0.4365234375, 0, 
45, 3881608835, 0.324808806180954, 0.5570967793464661, -0.25576335191726685, 0.7202275991439819, 0.9999979138374329, -0.001302296295762062, -0.0007732510566711426, -0.0013591106981039047, 0.09397673606872559, -0.007808804512023926, 0.01372981071472168, 11.28019905090332, -0.9239020943641663, 1.6377040147781372, -17.90859031677246, -10.633398056030273, -18.68987464904785, -0.93798828125, -0.2900390625, -0.435546875, 0, 
46, 3881617168, 0.3262675106525421, 0.5576131343841553, -0.25610968470573425, 0.7190446853637695, 0.9999980330467224, -0.0011966433376073837, -0.0007704906165599823, -0.0013748090714216232, 0.09299242496490479, -0.007213950157165527, 0.01335453987121582, 11.161947250366211, -0.8523191213607788, 1.5930076837539673, -16.45569610595703, -10.595438957214355, -18.905752182006836, -0.93896484375, -0.291015625, -0.435546875, 0, 
47, 3881625501, 0.327517032623291, 0.5585898756980896, -0.2572173774242401, 0.7173209190368652, 0.9999980926513672, -0.0011099297553300858, -0.0007640477269887924, -0.0014017540961503983, 0.09307938814163208, -0.006698787212371826, 0.01297450065612793, 11.172284126281738, -0.789936900138855, 1.547569751739502, -15.263249397277832, -10.506837844848633, -19.27628517150879, -0.9365234375, -0.291015625, -0.4345703125, 0, 
48, 3881633834, 0.32893848419189453, 0.5591077208518982, -0.25743380188941956, 0.7161884903907776, 0.9999982118606567, -0.001070590689778328, -0.0007093828171491623, -0.0014038477092981339, 0.09274697303771973, -0.005155980587005615, 0.01297086477279663, 11.132039070129395, -0.6048344373703003, 1.5480458736419678, -14.722274780273438, -9.755109786987305, -19.30507469177246, -0.9326171875, -0.296630859375, -0.43701171875, 0, 
49, 3881642167, 0.3295536935329437, 0.5602565407752991, -0.25809818506240845, 0.7147673964500427, 0.9999982118606567, -0.001104947179555893, -0.0006992295384407043, -0.0013825148344039917, 0.09180587530136108, -0.003472626209259033, 0.013327419757843018, 11.01883602142334, -0.40320873260498047, 1.591162085533142, -15.194730758666992, -9.615487098693848, -19.011714935302734, -0.935302734375, -0.296630859375, -0.4306640625, 0, 
50, 3881650500, 0.33101174235343933, 0.560684859752655, -0.25843942165374756, 0.7136337161064148, 0.999998152256012, -0.0012118592858314514, -0.0006773453205823898, -0.0013363361358642578, 0.08966976404190063, -0.0019732117652893066, 0.012633860111236572, 10.762141227722168, -0.2242075353860855, 1.508528232574463, -16.664939880371094, -9.314545631408691, -18.376689910888672, -0.932373046875, -0.297607421875, -0.43115234375, 0, 
51, 3881658833, 0.33220380544662476, 0.5615566372871399, -0.25970813632011414, 0.711931586265564, 0.9999979734420776, -0.001358700916171074, -0.0006968341767787933, -0.001306682825088501, 0.08717691898345947, 0.00010377168655395508, 0.010971665382385254, 10.462545394897461, 0.024379566311836243, 1.3093594312667847, -18.684236526489258, -9.58254623413086, -17.968908309936523, -0.931640625, -0.300048828125, -0.43408203125, 0, 
52, 3881667166, 0.3337973654270172, 0.5618847012519836, -0.2602495849132538, 0.710728645324707, 0.9999977946281433, -0.0014832783490419388, -0.0006747841835021973, -0.0013164374977350235, 0.08603125810623169, 0.0016404986381530762, 0.009226977825164795, 10.3246431350708, 0.20879937708377838, 1.1006239652633667, -20.39737319946289, -9.279327392578125, -18.103052139282227, -0.93212890625, -0.297607421875, -0.43212890625, 0, 
53, 3881675499, 0.3343147039413452, 0.5629457831382751, -0.2609022855758667, 0.7094054818153381, 0.9999975562095642, -0.0016474109143018723, -0.0005918461829423904, -0.001346508041024208, 0.08515948057174683, 0.0035587549209594727, 0.008923947811126709, 10.219596862792969, 0.439092218875885, 1.0655667781829834, -22.654449462890625, -8.138800621032715, -18.51656723022461, -0.9306640625, -0.302001953125, -0.43408203125, 0, 
54, 3881683832, 0.3362421691417694, 0.5630232691764832, -0.261606901884079, 0.7081725001335144, 0.9999971389770508, -0.0018802229315042496, -0.00048106350004673004, -0.0014045089483261108, 0.08422231674194336, 0.005007684230804443, 0.008461952209472656, 10.106719017028809, 0.6132614612579346, 1.011742353439331, -25.855981826782227, -6.6153693199157715, -19.314176559448242, -0.92822265625, -0.300537109375, -0.43408203125, 0, 
55, 3881692165, 0.3380616009235382, 0.5635140538215637, -0.26306888461112976, 0.7063719630241394, 0.9999967217445374, -0.0020860712975263596, -0.0003618244081735611, -0.0014547426253557205, 0.08264368772506714, 0.006348371505737305, 0.007479965686798096, 9.916851997375488, 0.7743671536445618, 0.8956446647644043, -28.68671989440918, -4.97564697265625, -20.00497055053711, -0.9296875, -0.302490234375, -0.435546875, 0, 
56, 3881700498, 0.34033405780792236, 0.5633455514907837, -0.263945609331131, 0.7050869464874268, 0.9999961853027344, -0.0022941865026950836, -0.00030289776623249054, -0.0015027672052383423, 0.08112627267837524, 0.0077628493309021, 0.007922112941741943, 9.73442554473877, 0.9440058469772339, 0.949890673160553, -31.548633575439453, -4.1653151512146, -20.665386199951172, -0.927734375, -0.303955078125, -0.4365234375, 0, 
57, 3881708831, 0.34215307235717773, 0.5637972354888916, -0.26524144411087036, 0.7033570408821106, 0.9999958276748657, -0.0024577807635068893, -0.00023136474192142487, -0.0015182625502347946, 0.08017438650131226, 0.008429229259490967, 0.008933722972869873, 9.620015144348145, 1.023526668548584, 1.0723596811294556, -33.798309326171875, -3.1816253662109375, -20.87847328186035, -0.927001953125, -0.308349609375, -0.43603515625, 0, 
58, 3881717164, 0.3445967733860016, 0.5634539127349854, -0.2662632465362549, 0.7020518779754639, 0.9999955892562866, -0.002559453248977661, -0.0001947600394487381, -0.0014998018741607666, 0.07788592576980591, 0.007868647575378418, 0.01019960641860962, 9.345499992370605, 0.9551758766174316, 1.2246084213256836, -35.196468353271484, -2.6782541275024414, -20.62461280822754, -0.92431640625, -0.310302734375, -0.4443359375, 0, 
59, 3881725497, 0.3465559482574463, 0.5638427734375, -0.2675839364528656, 0.7002708315849304, 0.9999954104423523, -0.002631012350320816, -0.00019898079335689545, -0.0014963988214731216, 0.07488948106765747, 0.006066739559173584, 0.0104178786277771, 8.986251831054688, 0.7382050156593323, 1.2503316402435303, -36.18052291870117, -2.7362966537475586, -20.57781982421875, -0.92333984375, -0.306884765625, -0.44140625, 0, 
60, 3881733830, 0.34903228282928467, 0.5634974837303162, -0.268669992685318, 0.6989016532897949, 0.9999953508377075, -0.002642028033733368, -0.00024256110191345215, -0.001505499705672264, 0.07146561145782471, 0.004202783107757568, 0.011961936950683594, 8.575800895690918, 0.5134662389755249, 1.4347505569458008, -36.332008361816406, -3.3355934619903564, -20.702970504760742, -0.923828125, -0.311767578125, -0.44580078125, 0, 
61, 3881742163, 0.35106927156448364, 0.5639100670814514, -0.2700083255767822, 0.6970305442810059, 0.9999955296516418, -0.0025802291929721832, -0.0002940986305475235, -0.0014692805707454681, 0.0685846209526062, 0.003659188747406006, 0.011689484119415283, 8.230245590209961, 0.44760218262672424, 1.401512622833252, -35.48217010498047, -4.044314861297607, -20.204896926879883, -0.92333984375, -0.306396484375, -0.447265625, 0, 
62, 3881750496, 0.3533606231212616, 0.5636886358261108, -0.2710729241371155, 0.6956371665000916, 0.9999958276748657, -0.0024873949587345123, -0.0003846157342195511, -0.0014279726892709732, 0.0674251914024353, 0.0034606456756591797, 0.011987507343292236, 8.091301918029785, 0.4232719838619232, 1.4364856481552124, -34.2055549621582, -5.289064884185791, -19.6368465423584, -0.9228515625, -0.311767578125, -0.44921875, 0, 
63, 3881758829, 0.3553241193294525, 0.564152181148529, -0.2724066376686096, 0.6937378644943237, 0.9999961853027344, -0.0023512672632932663, -0.0004300810396671295, -0.001370580866932869, 0.0668175220489502, 0.003930389881134033, 0.013243257999420166, 8.01845645904541, 0.47892794013023376, 1.5869181156158447, -32.333580017089844, -5.914283275604248, -18.84761619567871, -0.92138671875, -0.311279296875, -0.44775390625, 0, 
64, 3881767162, 0.35732823610305786, 0.56406170129776, -0.2734217345714569, 0.6923814415931702, 0.999996542930603, -0.0022357553243637085, -0.0005149915814399719, -0.001276882365345955, 0.06593507528305054, 0.0049114227294921875, 0.013745009899139404, 7.9126176834106445, 0.5958027243614197, 1.6467187404632568, -30.745105743408203, -7.081933975219727, -17.55911636352539, -0.92041015625, -0.309326171875, -0.450927734375, 0, 
65, 3881775495, 0.3589116930961609, 0.5646834373474121, -0.2746271789073944, 0.6905760169029236, 0.9999967813491821, -0.0021544061601161957, -0.0006250683218240738, -0.0012069884687662125, 0.0670011043548584, 0.006361842155456543, 0.011395633220672607, 8.040383338928223, 0.7702208161354065, 1.3641505241394043, -29.626426696777344, -8.595660209655762, -16.597965240478516, -0.919921875, -0.315673828125, -0.451416015625, 0, 
66, 3881783828, 0.3606400787830353, 0.5647946000099182, -0.2756960690021515, 0.6891573667526245, 0.9999969005584717, -0.0020629316568374634, -0.0007841400802135468, -0.0011315103620290756, 0.06899100542068481, 0.007907748222351074, 0.00899893045425415, 8.279022216796875, 0.956097424030304, 1.0753936767578125, -28.368505477905273, -10.78314208984375, -15.56002140045166, -0.91796875, -0.314208984375, -0.451904296875, 0, 
67, 3881792161, 0.36204102635383606, 0.5656023621559143, -0.2769828140735626, 0.6872416734695435, 0.9999971389770508, -0.0019320137798786163, -0.000960182398557663, -0.0010623317211866379, 0.07420295476913452, 0.008097946643829346, 0.00651240348815918, 8.904422760009766, 0.9797444939613342, 0.7748540639877319, -26.568185806274414, -13.203997611999512, -14.608709335327148, -0.91943359375, -0.316650390625, -0.450439453125, 0, 
68, 3881800494, 0.3634229302406311, 0.565926730632782, -0.2780437469482422, 0.6858154535293579, 0.9999974370002747, -0.0017876122146844864, -0.0010280385613441467, -0.0009578000754117966, 0.07766777276992798, 0.007846355438232422, 0.00856924057006836, 9.320653915405273, 0.9486748576164246, 1.020477056503296, -24.582439422607422, -14.137123107910156, -13.171235084533691, -0.9208984375, -0.316162109375, -0.451904296875, 0, 
69, 3881808827, 0.36445462703704834, 0.5669225454330444, -0.2792554497718811, 0.6839505434036255, 0.999997615814209, -0.001634504646062851, -0.001153482124209404, -0.0008503925055265427, 0.0798141360282898, 0.007567346096038818, 0.009190380573272705, 9.578574180603027, 0.9144836664199829, 1.0933023691177368, -22.476966857910156, -15.862163543701172, -11.694212913513184, -0.9150390625, -0.318115234375, -0.447509765625, 0, 
70, 3881817160, 0.3654712736606598, 0.5674734711647034, -0.2802540063858032, 0.6825411915779114, 0.9999978542327881, -0.0014513060450553894, -0.001252494752407074, -0.0007986146956682205, 0.08374202251434326, 0.007666528224945068, 0.010256648063659668, 10.050248146057129, 0.9262771010398865, 1.2195756435394287, -19.95770263671875, -17.223739624023438, -10.982187271118164, -0.91943359375, -0.319091796875, -0.452392578125, 0, 
71, 3881825493, 0.36626946926116943, 0.5686047673225403, -0.2813177704811096, 0.6807319521903992, 0.9999980926513672, -0.001310199499130249, -0.0012408643960952759, -0.0007560346275568008, 0.08368617296218872, 0.00830531120300293, 0.0104217529296875, 10.043530464172363, 1.0026159286499023, 1.2395453453063965, -18.017271041870117, -17.063806533813477, -10.396646499633789, -0.91796875, -0.315673828125, -0.44775390625, 0, 
72, 3881833826, 0.36713138222694397, 0.5692026019096375, -0.2822635769844055, 0.6793752312660217, 0.9999980926513672, -0.0012957695871591568, -0.0012785140424966812, -0.0007160082459449768, 0.08137553930282593, 0.00899726152420044, 0.011171102523803711, 9.766386032104492, 1.084958553314209, 1.3295350074768066, -17.818836212158203, -17.581544876098633, -9.846221923828125, -0.9169921875, -0.316162109375, -0.44482421875, 0, 
73, 3881842159, 0.3678515553474426, 0.5703951716423035, -0.2833978235721588, 0.677510678768158, 0.9999979138374329, -0.0013405531644821167, -0.0013844743371009827, -0.000682169571518898, 0.08016633987426758, 0.010411322116851807, 0.010350346565246582, 9.621204376220703, 1.2543033361434937, 1.230467677116394, -18.43467903137207, -19.03866195678711, -9.380887031555176, -0.919921875, -0.318603515625, -0.4462890625, 0, 
74, 3881850492, 0.36870622634887695, 0.5710191130638123, -0.2845155596733093, 0.6760503649711609, 0.9999977350234985, -0.0014282111078500748, -0.001420494168996811, -0.0006572380661964417, 0.07962995767593384, 0.010949194431304932, 0.010552942752838135, 9.556906700134277, 1.3184449672698975, 1.2546802759170532, -19.640111923217773, -19.533992767333984, -9.038041114807129, -0.91650390625, -0.320068359375, -0.44384765625, 0, 
75, 3881858825, 0.3694882392883301, 0.5721220374107361, -0.2857477366924286, 0.674168586730957, 0.9999977350234985, -0.0015012118965387344, -0.0013832077383995056, -0.0006209723651409149, 0.07880479097366333, 0.011032044887542725, 0.013174235820770264, 9.458313941955566, 1.3274089097976685, 1.5698615312576294, -20.64398765563965, -19.02124786376953, -8.53933048248291, -0.91796875, -0.320068359375, -0.4462890625, 0, 
76, 3881867158, 0.37036675214767456, 0.5726156234741211, -0.2869621813297272, 0.6727499961853027, 0.9999977350234985, -0.0015434622764587402, -0.0013375263661146164, -0.0005644168704748154, 0.07974809408187866, 0.012752771377563477, 0.014801859855651855, 9.571663856506348, 1.5330661535263062, 1.7658326625823975, -21.224994659423828, -18.393054962158203, -7.761605262756348, -0.91748046875, -0.317138671875, -0.443359375, 0, 
77, 3881875491, 0.3712209165096283, 0.5734619498252869, -0.2883054316043854, 0.6709820032119751, 0.9999977946281433, -0.0016442127525806427, -0.0012039095163345337, -0.00044908933341503143, 0.08212703466415405, 0.013798117637634277, 0.016215026378631592, 9.857232093811035, 1.657071590423584, 1.936745285987854, -22.610469818115234, -16.555618286132812, -6.175673484802246, -0.916015625, -0.317626953125, -0.44140625, 0, 
78, 3881883824, 0.37213167548179626, 0.5736097693443298, -0.2898109555244446, 0.669701337814331, 0.999997615814209, -0.0018459279090166092, -0.001124868169426918, -0.0002674609422683716, 0.08375972509384155, 0.014171719551086426, 0.0179746150970459, 10.053535461425781, 1.6993876695632935, 2.148881196975708, -25.38436508178711, -15.468677520751953, -3.678001880645752, -0.92041015625, -0.316650390625, -0.43994140625, 0, 
79, 3881892157, 0.37300533056259155, 0.5740763545036316, -0.29159921407699585, 0.6680370569229126, 0.9999971985816956, -0.00208163820207119, -0.0011091921478509903, -0.000019842758774757385, 0.08533734083175659, 0.012857377529144287, 0.020992696285247803, 10.24365520477295, 1.5379036664962769, 2.511059522628784, -28.625749588012695, -15.2531099319458, -0.27286866307258606, -0.920166015625, -0.319580078125, -0.43896484375, 0, 
80, 3881900490, 0.37382712960243225, 0.5739369988441467, -0.29371899366378784, 0.6667677164077759, 0.9999966025352478, -0.0023091547191143036, -0.0011812318116426468, 0.00023356545716524124, 0.08651512861251831, 0.008764922618865967, 0.02150672674179077, 10.385525703430176, 1.0434393882751465, 2.5710489749908447, -31.75446128845215, -16.243770599365234, 3.211887836456299, -0.92138671875, -0.315673828125, -0.44140625, 0, 
81, 3881908823, 0.37467435002326965, 0.5741085410118103, -0.2960352897644043, 0.6651179194450378, 0.9999960660934448, -0.0025180447846651077, -0.0011822357773780823, 0.00042981933802366257, 0.08932524919509888, 0.0030841827392578125, 0.020536601543426514, 10.722525596618652, 0.35930678248405457, 2.452732801437378, -34.62702941894531, -16.25758171081543, 5.910684585571289, -0.92529296875, -0.310791015625, -0.43896484375, 0, 
82, 3881917156, 0.3754483759403229, 0.5737804174423218, -0.2985326051712036, 0.6638472080230713, 0.9999957084655762, -0.002603735774755478, -0.0012119673192501068, 0.0005386499688029289, 0.09096783399581909, -0.00016760826110839844, 0.018455982208251953, 10.919246673583984, -0.031769514083862305, 2.201488733291626, -35.805419921875, -16.66643714904785, 7.407275199890137, -0.9267578125, -0.315673828125, -0.4404296875, 0, 
83, 3881925489, 0.3761480152606964, 0.5739025473594666, -0.3008066713809967, 0.6623174548149109, 0.9999963045120239, -0.0023840125650167465, -0.0011815037578344345, 0.0005524391308426857, 0.09353399276733398, -0.0014916658401489258, 0.01661360263824463, 11.226778984069824, -0.18995951116085052, 1.9800019264221191, -32.78387451171875, -16.24751091003418, 7.596895694732666, -0.923828125, -0.309326171875, -0.443359375, 0, 
84, 3881933822, 0.3767687976360321, 0.5737044215202332, -0.30300116539001465, 0.6611348390579224, 0.9999966621398926, -0.0022391900420188904, -0.0011799335479736328, 0.0004618139937520027, 0.09285604953765869, 0.00014835596084594727, 0.015973806381225586, 11.145434379577637, 0.008379095233976841, 1.9038236141204834, -30.79233741760254, -16.22591781616211, 6.350658893585205, -0.92529296875, -0.307861328125, -0.43994140625, 0, 
85, 3881942155, 0.37742698192596436, 0.5739407539367676, -0.30505692958831787, 0.6596069931983948, 0.9999968409538269, -0.0021674316376447678, -0.001231672242283821, 0.00037596095353364944, 0.09155106544494629, 0.0007849931716918945, 0.014385521411895752, 10.988719940185547, 0.08635010570287704, 1.7130144834518433, -29.805553436279297, -16.937406539916992, 5.170046329498291, -0.92578125, -0.304443359375, -0.4404296875, 0, 
86, 3881950488, 0.3780217468738556, 0.573849081993103, -0.30714288353919983, 0.6583770513534546, 0.9999969005584717, -0.002126367762684822, -0.0012446772307157516, 0.00036774110049009323, 0.08868181705474854, 0.0012332797050476074, 0.012033283710479736, 10.644086837768555, 0.14103199541568756, 1.4311292171478271, -29.240856170654297, -17.116243362426758, 5.057011127471924, -0.93115234375, -0.30615234375, -0.439453125, 0, 
87, 3881958821, 0.3785458207130432, 0.5740350484848022, -0.30913716554641724, 0.6569789052009583, 0.9999971389770508, -0.0020204540342092514, -0.0011728443205356598, 0.00046211760491132736, 0.08490842580795288, 0.0007115602493286133, 0.010514914989471436, 10.190930366516113, 0.0781513974070549, 1.250075340270996, -27.784378051757812, -16.128427505493164, 6.354833602905273, -0.92919921875, -0.301513671875, -0.44140625, 0, 
88, 3881967154, 0.3789159953594208, 0.5738165974617004, -0.31110650300979614, 0.6560260057449341, 0.9999974966049194, -0.001882871612906456, -0.001027427613735199, 0.0005932534113526344, 0.08001518249511719, -0.0005016922950744629, 0.010162174701690674, 9.60341739654541, -0.0681835189461708, 1.2095367908477783, -25.892396926879883, -14.128718376159668, 8.15815258026123, -0.9296875, -0.301025390625, -0.4375, 0, 
89, 3881975487, 0.3791389465332031, 0.5738982558250427, -0.31298571825027466, 0.6549313068389893, 0.9999977946281433, -0.001712258905172348, -0.000995725393295288, 0.000716417096555233, 0.07647860050201416, -0.002818763256072998, 0.0104026198387146, 9.178794860839844, -0.34697994589805603, 1.2386322021484375, -23.546207427978516, -13.692764282226562, 9.851842880249023, -0.92919921875, -0.295166015625, -0.4404296875, 0, 
90, 3881983820, 0.379137247800827, 0.5737399458885193, -0.31483057141304016, 0.6541864275932312, 0.9999980330467224, -0.001499965786933899, -0.001016451045870781, 0.0008263392373919487, 0.07517939805984497, -0.006212353706359863, 0.01015007495880127, 9.022502899169922, -0.7547842860221863, 1.2077701091766357, -20.626848220825195, -13.97777271270752, 11.363441467285156, -0.93310546875, -0.29833984375, -0.4375, 0, 
91, 3881992153, 0.37890514731407166, 0.5739763975143433, -0.31653979420661926, 0.6532877683639526, 0.9999982714653015, -0.0012113247066736221, -0.0010799262672662735, 0.0009107412770390511, 0.07608658075332642, -0.00899648666381836, 0.009952843189239502, 9.131053924560547, -1.0893627405166626, 1.1832354068756104, -16.657588958740234, -14.850655555725098, 12.524100303649902, -0.93310546875, -0.292724609375, -0.4375, 0, 
92, 3882000486, 0.37846046686172485, 0.5740652680397034, -0.31812021136283875, 0.6526995897293091, 0.9999985098838806, -0.0009292270988225937, -0.001127447932958603, 0.0009461762383580208, 0.07686734199523926, -0.010908544063568115, 0.009346723556518555, 9.224467277526855, -1.3188763856887817, 1.109993815422058, -12.77830696105957, -15.504150390625, 13.011383056640625, -0.935546875, -0.29296875, -0.4365234375, 0, 
93, 3882008819, 0.3778376877307892, 0.5745423436164856, -0.31954360008239746, 0.6519447565078735, 0.9999986290931702, -0.0006551127880811691, -0.001187499612569809, 0.0009267376735806465, 0.07727855443954468, -0.011625349521636963, 0.008220314979553223, 9.273666381835938, -1.4043828248977661, 0.9744873046875, -9.00881290435791, -16.329952239990234, 12.744073867797852, -0.9365234375, -0.2880859375, -0.43505859375, 0, 
94, 3882017152, 0.3771316409111023, 0.5749081969261169, -0.32077401876449585, 0.6514266133308411, 0.9999988079071045, -0.00042331404983997345, -0.0012187492102384567, 0.0008541224524378777, 0.07776987552642822, -0.011057376861572266, 0.006706118583679199, 9.332598686218262, -1.3352142572402954, 0.7928786277770996, -5.821221351623535, -16.759681701660156, 11.745500564575195, -0.939453125, -0.28369140625, -0.4326171875, 0, 
95, 3882025485, 0.3763772249221802, 0.5755280256271362, -0.321912556886673, 0.6507537364959717, 0.9999989867210388, -0.00030404143035411835, -0.0011789444833993912, 0.0007723132148385048, 0.07735681533813477, -0.008250057697296143, 0.005036890506744385, 9.283130645751953, -0.9974246621131897, 0.5931652784347534, -4.181037902832031, -16.212303161621094, 10.62049674987793, -0.93994140625, -0.28515625, -0.4326171875, 0, 
96, 3882033818, 0.37573304772377014, 0.5759168863296509, -0.3229318857192993, 0.6502767205238342, 0.9999991059303284, -0.00029931217432022095, -0.001110367476940155, 0.0007008695974946022, 0.07665926218032837, -0.00553816556930542, 0.0029895901679992676, 9.199405670166016, -0.6711755990982056, 0.34832653403282166, -4.116003513336182, -15.26926326751709, 9.63803768157959, -0.943359375, -0.28564453125, -0.42919921875, 0, 
97, 3882042151, 0.37508997321128845, 0.5764183402061462, -0.3239971995353699, 0.649673581123352, 0.9999992251396179, -0.0003350861370563507, -0.0009984299540519714, 0.0006739674136042595, 0.07679057121276855, -0.0034728646278381348, 0.0021041035652160645, 9.215203285217285, -0.42299965023994446, 0.24324291944503784, -4.607950687408447, -13.729949951171875, 9.26809024810791, -0.944580078125, -0.28125, -0.42578125, 0, 
98, 3882050484, 0.37459176778793335, 0.5766295194625854, -0.3249853253364563, 0.6492798924446106, 0.9999992847442627, -0.0004026312381029129, -0.000887453556060791, 0.0006770314648747444, 0.07667750120162964, -0.002794325351715088, 0.003312408924102783, 9.201788902282715, -0.34168803691864014, 0.38924640417099, -5.536799430847168, -12.203852653503418, 9.310224533081055, -0.940673828125, -0.280029296875, -0.4228515625, 0, 
99, 3882058817, 0.3740224242210388, 0.576984167098999, -0.3261395990848541, 0.648714005947113, 0.9999992251396179, -0.00047425925731658936, -0.0008806847035884857, 0.000716174952685833, 0.07665127515792847, -0.004422366619110107, 0.004512786865234375, 9.198615074157715, -0.5375779867172241, 0.5331666469573975, -6.521795272827148, -12.110770225524902, 9.84850788116455, -0.9443359375, -0.279296875, -0.42578125, 0, 
100, 3882067150, 0.37337902188301086, 0.5771816372871399, -0.3271642029285431, 0.6483930349349976, 0.9999992251396179, -0.00032377801835536957, -0.0008974876254796982, 0.0008236831054091454, 0.07374542951583862, -0.018282294273376465, 0.00859689712524414, 8.84892463684082, -2.2015411853790283, 1.0230655670166016, -4.452446460723877, -12.341837882995605, 11.326911926269531, -0.940673828125, -0.278076171875, -0.421875, 0, 
101, 3882075483, 0.37221893668174744, 0.5776737928390503, -0.32814526557922363, 0.648125946521759, 0.9999989867210388, 0.00013109948486089706, -0.0009227115660905838, 0.001049504615366459, 0.07357943058013916, -0.016938447952270508, 0.0020124316215515137, 8.827971458435059, -2.0419156551361084, 0.2336338311433792, 1.8028203248977661, -12.688706398010254, 14.432306289672852, -0.947998046875, -0.27783203125, -0.4248046875, 0, 
102, 3882083816, 0.3707559406757355, 0.5781344771385193, -0.32887667417526245, 0.6481829881668091, 0.9999985694885254, 0.0005617877468466759, -0.0010086726397275925, 0.001240474171936512, 0.07633727788925171, -0.014790177345275879, 0.005637168884277344, 9.159317016601562, -1.78583562374115, 0.6682774424552917, 7.725449562072754, -13.870807647705078, 17.05843734741211, -0.94873046875, -0.2724609375, -0.42333984375, 0, 
103, 3882092149, 0.3687719702720642, 0.5789293646812439, -0.3296525776386261, 0.6482111215591431, 0.9999979138374329, 0.0009567579254508018, -0.0011480003595352173, 0.0014110049232840538, 0.07735121250152588, -0.008244037628173828, 0.00836271047592163, 9.282262802124023, -1.001487135887146, 0.9938421845436096, 13.156901359558105, -15.78678035736084, 19.403499603271484, -0.950439453125, -0.275390625, -0.4169921875, 0, 
104, 3882100482, 0.36661219596862793, 0.579761266708374, -0.33010226488113403, 0.6484638452529907, 0.9999971985816956, 0.001349552534520626, -0.001261238008737564, 0.0014788834378123283, 0.07706701755523682, -0.007390439510345459, 0.006248116493225098, 9.248034477233887, -0.8995667695999146, 0.7393355369567871, 18.558439254760742, -17.343978881835938, 20.336938858032227, -0.951904296875, -0.27197265625, -0.4150390625, 0, 
105, 3882108815, 0.3641507923603058, 0.5809035301208496, -0.3305255174636841, 0.648612916469574, 0.9999967813491821, 0.0016339803114533424, -0.0013418160378932953, 0.0014091553166508675, 0.08325749635696411, 0.0014797449111938477, 0.0020723938941955566, 9.991872787475586, 0.16387246549129486, 0.2349843978881836, 22.469764709472656, -18.45205307006836, 19.37807273864746, -0.952392578125, -0.26708984375, -0.4111328125, 0, 
106, 3882117148, 0.36197641491889954, 0.5819734334945679, -0.33067387342453003, 0.6487953662872314, 0.999997079372406, 0.0016173860058188438, -0.0013506412506103516, 0.0012088203802704811, 0.08638930320739746, 0.006548762321472168, 0.002510249614715576, 10.368475914001465, 0.7738308310508728, 0.2859756350517273, 22.241567611694336, -18.57341194152832, 16.62315559387207, -0.956298828125, -0.26708984375, -0.40966796875, 0, 
107, 3882125481, 0.36000773310661316, 0.5831291675567627, -0.33093586564064026, 0.648719310760498, 0.9999978542327881, 0.0013826461508870125, -0.0012608468532562256, 0.0009050415828824043, 0.0881960391998291, 0.006078779697418213, 0.0004531741142272949, 10.58466911315918, 0.7199710607528687, 0.04003080725669861, 19.01352310180664, -17.33859634399414, 12.445722579956055, -0.956298828125, -0.265625, -0.40380859375, 0, 
108, 3882133814, 0.3586321175098419, 0.5840163826942444, -0.33093032240867615, 0.6486860513687134, 0.9999986886978149, 0.00111487228423357, -0.0010378602892160416, 0.0005828579887747765, 0.0859108567237854, 0.0023568272590637207, 0.00039076805114746094, 10.309922218322754, 0.2768860161304474, 0.03591161593794823, 15.33121395111084, -14.272180557250977, 8.015196800231934, -0.955810546875, -0.26513671875, -0.40234375, 0, 
109, 3882142147, 0.35743898153305054, 0.5849307179450989, -0.33100590109825134, 0.6484822630882263, 0.9999991655349731, 0.0009207362309098244, -0.0008457563817501068, 0.00035433005541563034, 0.08392328023910522, -0.001672208309173584, 0.0018472075462341309, 10.071310043334961, -0.20406025648117065, 0.21329179406166077, 12.661542892456055, -11.630453109741211, 4.872583866119385, -0.957763671875, -0.26416015625, -0.400390625, 0, 
110, 3882150480, 0.3565581440925598, 0.5856235027313232, -0.33093804121017456, 0.6483765840530396, 0.9999993443489075, 0.0007725292816758156, -0.0007677804678678513, 0.00026346463710069656, 0.0822330117225647, -0.0069890618324279785, 0.0032505393028259277, 9.86843204498291, -0.8410139679908752, 0.3831741511821747, 10.623467445373535, -10.558162689208984, 3.623044490814209, -0.95849609375, -0.263671875, -0.396240234375, 0, 
111, 3882158813, 0.3554668128490448, 0.5864375829696655, -0.3310011029243469, 0.6482076048851013, 0.9999993443489075, 0.0008444758132100105, -0.0007149204611778259, 0.00033401791006326675, 0.08082062005996704, -0.008334696292877197, 0.004669606685638428, 9.698927879333496, -1.0029826164245605, 0.5542625784873962, 11.61284351348877, -9.831256866455078, 4.593260765075684, -0.96337890625, -0.26611328125, -0.393798828125, 0, 
112, 3882167146, 0.3543993830680847, 0.5870615243911743, -0.33088284730911255, 0.6482877731323242, 0.9999992251396179, 0.0009516971185803413, -0.0006578043103218079, 0.00044343341141939163, 0.07878279685974121, -0.006606936454772949, 0.006793379783630371, 9.454497337341309, -0.7963152527809143, 0.8097227215766907, 13.087301254272461, -9.045822143554688, 6.097892761230469, -0.9619140625, -0.2646484375, -0.391845703125, 0, 
113, 3882175479, 0.3530822992324829, 0.587827742099762, -0.3309519588947296, 0.648276686668396, 0.9999991059303284, 0.001010446809232235, -0.0006722379475831985, 0.0005391379818320274, 0.0787476897239685, -0.00475311279296875, 0.00831460952758789, 9.450459480285645, -0.5744730234146118, 0.9920351505279541, 13.895200729370117, -9.244307518005371, 7.41397762298584, -0.962890625, -0.26171875, -0.389404296875, 0, 
114, 3882183812, 0.35182619094848633, 0.5884490013122559, -0.330858051776886, 0.648443877696991, 0.9999989867210388, 0.0010747658088803291, -0.0006756484508514404, 0.0006113192066550255, 0.07829242944717407, -0.005868375301361084, 0.010269582271575928, 9.395867347717285, -0.7086796760559082, 1.2267773151397705, 14.779685974121094, -9.291207313537598, 8.40658187866211, -0.9658203125, -0.26318359375, -0.385498046875, 0, 
115, 3882192145, 0.35028156638145447, 0.5892645120620728, -0.3309065103530884, 0.6485149264335632, 0.9999987483024597, 0.0012032510712742805, -0.0007399991154670715, 0.0006776964291930199, 0.07919222116470337, -0.010936737060546875, 0.01143103837966919, 9.503568649291992, -1.317231297492981, 1.3663519620895386, 16.546560287475586, -10.176130294799805, 9.319372177124023, -0.96630859375, -0.26806640625, -0.389892578125, 0, 
116, 3882200478, 0.348642498254776, 0.5900699496269226, -0.3306698799133301, 0.6487864255905151, 0.9999982714653015, 0.0014921827241778374, -0.0008100029081106186, 0.0007506096735596657, 0.08166617155075073, -0.018796205520629883, 0.011384189128875732, 9.799741744995117, -2.2609710693359375, 1.3615727424621582, 20.519817352294922, -11.13879108428955, 10.322043418884277, -0.96435546875, -0.26171875, -0.385986328125, 0, 
117, 3882208811, 0.3465439975261688, 0.591122567653656, -0.3303760588169098, 0.6491022706031799, 0.9999974966049194, 0.0019142990931868553, -0.0008378438651561737, 0.0008260412141680717, 0.08430224657058716, -0.024907946586608887, 0.01131659746170044, 10.11534309387207, -2.9948177337646484, 1.3553022146224976, 26.32457733154297, -11.521651268005371, 11.359345436096191, -0.968505859375, -0.2646484375, -0.376708984375, 0, 
118, 3882217144, 0.3443371057510376, 0.5922012329101562, -0.32955607771873474, 0.6497101187705994, 0.9999964833259583, 0.0024122605100274086, -0.0007737614214420319, 0.0008003348484635353, 0.08596360683441162, -0.029498398303985596, 0.009488701820373535, 10.314088821411133, -3.545461416244507, 1.139251947402954, 33.17232894897461, -10.640421867370605, 11.005847930908203, -0.966552734375, -0.26513671875, -0.375732421875, 0, 
119, 3882225477, 0.34172478318214417, 0.5934669971466064, -0.3284680247306824, 0.6504849791526794, 0.9999951720237732, 0.002963024191558361, -0.0006251242011785507, 0.0007270770147442818, 0.08679920434951782, -0.030726373195648193, 0.008370578289031982, 10.41426944732666, -3.6918978691101074, 1.0089224576950073, 40.7462043762207, -8.59643268585205, 9.998442649841309, -0.968505859375, -0.2607421875, -0.373291015625, 0, 
120, 3882233810, 0.33913663029670715, 0.5947132110595703, -0.3267730474472046, 0.6515541076660156, 0.9999938607215881, 0.0034165149554610252, -0.0004345625638961792, 0.0006316686049103737, 0.08627665042877197, -0.0270310640335083, 0.007214784622192383, 10.351940155029297, -3.2474277019500732, 0.87239009141922, 46.98242950439453, -5.975915908813477, 8.686431884765625, -0.969482421875, -0.26416015625, -0.367919921875, 0, 
121, 3882242143, 0.3362303674221039, 0.5960074663162231, -0.3249705731868744, 0.6527777910232544, 0.9999927282333374, 0.003767942078411579, -0.0002487450838088989, 0.0005690800026059151, 0.08489745855331421, -0.02109360694885254, 0.006526947021484375, 10.186857223510742, -2.534169912338257, 0.7902675271034241, 51.81512451171875, -3.420635938644409, 7.82574462890625, -0.969970703125, -0.2646484375, -0.366455078125, 0, 
122, 3882250476, 0.33347225189208984, 0.5972230434417725, -0.322711706161499, 0.6542007327079773, 0.9999918937683105, 0.00399054866284132, -0.00006936490535736084, 0.0005354182794690132, 0.08379209041595459, -0.014466822147369385, 0.005860507488250732, 10.054573059082031, -1.7386562824249268, 0.7095217704772949, 54.87632751464844, -0.9538766741752625, 7.362843990325928, -0.973388671875, -0.265625, -0.364990234375, 0, 
123, 3882258809, 0.3304353952407837, 0.5983788371086121, -0.3205617666244507, 0.6557409763336182, 0.9999912977218628, 0.004132374189794064, 0.00009111035615205765, 0.000550311990082264, 0.0828700065612793, -0.00868844985961914, 0.005679965019226074, 9.944162368774414, -1.045302391052246, 0.6868374943733215, 56.826663970947266, 1.25291109085083, 7.567657470703125, -0.974853515625, -0.26318359375, -0.362060546875, 0, 
124, 3882267142, 0.3275493383407593, 0.5994718074798584, -0.3180726170539856, 0.6574005484580994, 0.9999907612800598, 0.00425355788320303, 0.00018674787133932114, 0.0005984408780932426, 0.08294785022735596, -0.005333423614501953, 0.006171703338623047, 9.953617095947266, -0.6428353190422058, 0.7452172636985779, 58.493141174316406, 2.56807804107666, 8.229507446289062, -0.970947265625, -0.26220703125, -0.358154296875, 0, 
125, 3882275475, 0.32437434792518616, 0.6005442142486572, -0.3158142566680908, 0.6590825915336609, 0.9999905228614807, 0.0043065110221505165, 0.00021188240498304367, 0.0006369007751345634, 0.08328855037689209, -0.004416227340698242, 0.006787419319152832, 9.994515419006348, -0.5328183770179749, 0.8189240097999573, 59.22134017944336, 2.9137184619903564, 8.758392333984375, -0.9736328125, -0.265625, -0.353271484375, 0, 
126, 3882283808, 0.3213841915130615, 0.6016168594360352, -0.3132823407649994, 0.6607753038406372, 0.9999902844429016, 0.004348211921751499, 0.00019993167370557785, 0.000657317228615284, 0.08377796411514282, -0.004307687282562256, 0.007846593856811523, 10.053230285644531, -0.5194500088691711, 0.9458888173103333, 59.7947883605957, 2.7493762969970703, 9.039151191711426, -0.96875, -0.267578125, -0.350341796875, 0, 
127, 3882292141, 0.3181363046169281, 0.602716326713562, -0.31095337867736816, 0.6624432802200317, 0.9999901056289673, 0.004402953200042248, 0.00017404649406671524, 0.0006346395239233971, 0.08333408832550049, -0.00577390193939209, 0.0081443190574646, 9.999881744384766, -0.6949320435523987, 0.9821515679359436, 60.547576904296875, 2.3934147357940674, 8.72729778289795, -0.97265625, -0.2666015625, -0.347900390625, 0, 
128, 3882300474, 0.31507164239883423, 0.6038954854011536, -0.3082745671272278, 0.6640841364860535, 0.9999896883964539, 0.004508317448198795, 0.00012083444744348526, 0.0005672601982951164, 0.08301383256912231, -0.007069051265716553, 0.007843613624572754, 9.96146297454834, -0.8497193455696106, 0.9462995529174805, 61.99650955200195, 1.6616652011871338, 7.800726890563965, -0.97412109375, -0.26806640625, -0.34375, 0, 
129, 3882308807, 0.31175240874290466, 0.6051379442214966, -0.3057464063167572, 0.6656863689422607, 0.9999893307685852, 0.004597154445946217, 0.00006667245179414749, 0.0005008717998862267, 0.08216339349746704, -0.0078092217445373535, 0.0076500773429870605, 9.859471321105957, -0.9378548264503479, 0.9230146408081055, 63.218170166015625, 0.9168519377708435, 6.887781620025635, -0.97607421875, -0.26904296875, -0.33984375, 0, 
130, 3882317140, 0.3086395561695099, 0.6064547896385193, -0.3028653562068939, 0.6672536730766296, 0.9999889135360718, 0.004692808724939823, 0.00003229361027479172, 0.00041053909808397293, 0.08186143636703491, -0.00792384147644043, 0.007872998714447021, 9.823344230651855, -0.9504904747009277, 0.9495788812637329, 64.53357696533203, 0.4440884590148926, 5.645565032958984, -0.97412109375, -0.26953125, -0.33642578125, 0, 
131, 3882325473, 0.3052705228328705, 0.6078442335128784, -0.3001036047935486, 0.6687851548194885, 0.9999884963035583, 0.004788742400705814, -0.000028692185878753662, 0.0003237677738070488, 0.08003968000411987, -0.008159875869750977, 0.007517993450164795, 9.60485553741455, -0.9780066013336182, 0.906606912612915, 65.85282135009766, -0.3945631682872772, 4.4523210525512695, -0.974365234375, -0.2724609375, -0.32958984375, 0, 
132, 3882333806, 0.3020326495170593, 0.6093604564666748, -0.29701900482177734, 0.6702507734298706, 0.999987781047821, 0.004935263656079769, -0.00013908930122852325, 0.00027799513190984726, 0.08003097772598267, -0.007574319839477539, 0.007649719715118408, 9.603976249694824, -0.9070875644683838, 0.9211517572402954, 67.86773681640625, -1.9126996994018555, 3.822876214981079, -0.974853515625, -0.26953125, -0.330078125, 0, 
133, 3882342139, 0.2985050082206726, 0.6109305024147034, -0.29408204555511475, 0.6716956496238708, 0.9999870657920837, 0.005077009089291096, -0.00021005608141422272, 0.0002447618171572685, 0.07896912097930908, -0.007739007472991943, 0.007829368114471436, 9.476644515991211, -0.9262638092041016, 0.9422808885574341, 69.81697845458984, -2.888606548309326, 3.365865707397461, -0.977294921875, -0.2705078125, -0.32421875, 0, 
134, 3882350472, 0.2950415313243866, 0.6126229166984558, -0.2908264994621277, 0.6731004118919373, 0.9999862909317017, 0.005222649313509464, -0.00031086988747119904, 0.0002538515254855156, 0.0779525637626648, -0.007299959659576416, 0.007642865180969238, 9.354744911193848, -0.8736108541488647, 0.9188439846038818, 71.81978607177734, -4.27495813369751, 3.4908647537231445, -0.974853515625, -0.27392578125, -0.3203125, 0, 
135, 3882358805, 0.29128703474998474, 0.6143597364425659, -0.2878354787826538, 0.6744371652603149, 0.99998539686203, 0.005376034416258335, -0.00045379064977169037, 0.00029091257601976395, 0.0776679515838623, -0.007519781589508057, 0.008046627044677734, 9.32070255279541, -0.8999276757240295, 0.9662514925003052, 73.92908477783203, -6.240348815917969, 4.000514507293701, -0.9765625, -0.2734375, -0.31298828125, 0, 
136, 3882367138, 0.2875012755393982, 0.6162519454956055, -0.28447216749191284, 0.6757610440254211, 0.9999845027923584, 0.005528257228434086, -0.0005582720041275024, 0.00032196100801229477, 0.07781088352203369, -0.008131146430969238, 0.007511794567108154, 9.337868690490723, -0.973800003528595, 0.9016290903091431, 76.0224380493164, -7.677138805389404, 4.4274821281433105, -0.9755859375, -0.274169921875, -0.30859375, 0, 
137, 3882375471, 0.28325286507606506, 0.6182047724723816, -0.2811998724937439, 0.677139401435852, 0.999983549118042, 0.0056845443323254585, -0.0006379075348377228, 0.00038060080260038376, 0.07776051759719849, -0.00884181261062622, 0.00634998083114624, 9.331717491149902, -1.0602796077728271, 0.7621055841445923, 78.1716537475586, -8.772256851196289, 5.233874797821045, -0.9794921875, -0.27783203125, -0.30517578125, 0, 
138, 3882383804, 0.27911338210105896, 0.6201996207237244, -0.2776888608932495, 0.6784816980361938, 0.9999823570251465, 0.0058809565380215645, -0.0006755981594324112, 0.000445307232439518, 0.07869946956634521, -0.009905517101287842, 0.004937350749969482, 9.444184303283691, -1.1894290447235107, 0.5931171178817749, 80.87267303466797, -9.290568351745605, 6.123694896697998, -0.9765625, -0.274658203125, -0.296875, 0, 
139, 3882392137, 0.27458304166793823, 0.6221786141395569, -0.2743164300918579, 0.6798890829086304, 0.9999812841415405, 0.006060534156858921, -0.0007019955664873123, 0.000517125241458416, 0.07929545640945435, -0.009910285472869873, 0.003999948501586914, 9.515558242797852, -1.191292405128479, 0.4805447459220886, 83.34217834472656, -9.65357780456543, 7.111311912536621, -0.978759765625, -0.278076171875, -0.28857421875, 0, 
140, 3882400470, 0.2700847089290619, 0.6242567896842957, -0.27058595418930054, 0.6812794208526611, 0.9999797940254211, 0.006289045326411724, -0.0007422808557748795, 0.000542021356523037, 0.08159160614013672, -0.009484052658081055, 0.002864539623260498, 9.791021347045898, -1.1412761211395264, 0.3436550199985504, 86.48462677001953, -10.207572937011719, 7.453678131103516, -0.981201171875, -0.278564453125, -0.283447265625, 0, 
141, 3882408803, 0.2652815580368042, 0.6262813210487366, -0.26693931221961975, 0.6827456951141357, 0.9999788999557495, 0.006440174765884876, -0.000700855627655983, 0.0005295006558299065, 0.08312654495239258, -0.008978962898254395, 0.0021933913230895996, 9.975197792053223, -1.0811066627502441, 0.2631732225418091, 88.56292724609375, -9.637909889221191, 7.281498908996582, -0.982177734375, -0.278564453125, -0.279541015625, 0, 
142, 3882417136, 0.2606750428676605, 0.628292441368103, -0.26296964287757874, 0.6842111945152283, 0.9999784231185913, 0.0065220994874835014, -0.0006165206432342529, 0.0005032187327742577, 0.08369016647338867, -0.009734392166137695, 0.0013285279273986816, 10.042730331420898, -1.1721857786178589, 0.16086606681346893, 89.68953704833984, -8.478167533874512, 6.920080661773682, -0.98095703125, -0.276611328125, -0.269287109375, 0, 
143, 3882425469, 0.2558094263076782, 0.6302024722099304, -0.25916188955307007, 0.6857423186302185, 0.9999781847000122, 0.006561347283422947, -0.0005561485886573792, 0.0005142008885741234, 0.08337372541427612, -0.010901391506195068, 0.0011519193649291992, 10.004650115966797, -1.3124507665634155, 0.1412648856639862, 90.22927856445312, -7.647953987121582, 7.071104526519775, -0.97900390625, -0.280029296875, -0.262451171875, 0, 
144, 3882433802, 0.2511642277240753, 0.6321062445640564, -0.25514328479766846, 0.6872125864028931, 0.999978244304657, 0.006553336046636105, -0.0005392301827669144, 0.0005271965637803078, 0.08319687843322754, -0.010788381099700928, 0.001151740550994873, 9.983415603637695, -1.2990081310272217, 0.14132437109947205, 90.11908721923828, -7.41529655456543, 7.249814510345459, -0.98095703125, -0.280029296875, -0.260986328125, 0, 
145, 3882442135, 0.24631956219673157, 0.633924126625061, -0.25133100152015686, 0.6886945962905884, 0.9999783635139465, 0.006539248861372471, -0.0005167815834283829, 0.0005046883597970009, 0.08262300491333008, -0.010549962520599365, 0.0008127689361572266, 9.914567947387695, -1.27040433883667, 0.1006999984383583, 89.92537689208984, -7.106592655181885, 6.9402899742126465, -0.983642578125, -0.284423828125, -0.251708984375, 0, 
146, 3882450468, 0.2416941225528717, 0.635749340057373, -0.24724678695201874, 0.6901277899742126, 0.999978244304657, 0.006557137705385685, -0.0004890281707048416, 0.00048168841749429703, 0.08256542682647705, -0.011041104793548584, 0.000005602836608886719, 9.907609939575195, -1.329746961593628, 0.004526921082288027, 90.17137145996094, -6.72493839263916, 6.62400484085083, -0.987060546875, -0.279541015625, -0.245849609375, 0, 
147, 3882458801, 0.23685887455940247, 0.6374980807304382, -0.2433478981256485, 0.6915755271911621, 0.9999781847000122, 0.00657378975301981, -0.00046597421169281006, 0.00044674333184957504, 0.08252036571502686, -0.010879099369049072, 0.0005295872688293457, 9.9022855758667, -1.3095415830612183, 0.06752971559762955, 90.4003677368164, -6.407907485961914, 6.143452167510986, -0.987060546875, -0.285400390625, -0.240478515625, 0, 
148, 3882467134, 0.23223206400871277, 0.6392943263053894, -0.2391839325428009, 0.6929378509521484, 0.9999780654907227, 0.006588646210730076, -0.0004973243921995163, 0.00042127352207899094, 0.08196848630905151, -0.01085275411605835, 0.00038945674896240234, 9.836085319519043, -1.3062107563018799, 0.05043452978134155, 90.60467529296875, -6.839025497436523, 5.793200969696045, -0.98583984375, -0.283935546875, -0.228759765625, 0, 
149, 3882475467, 0.22740477323532104, 0.6410419940948486, -0.23524148762226105, 0.6942726373672485, 0.9999781847000122, 0.0065727150067687035, -0.0005228333175182343, 0.00038128625601530075, 0.08195847272872925, -0.008396029472351074, 0.0004990696907043457, 9.835057258605957, -1.0109180212020874, 0.06137877702713013, 90.38561248779297, -7.189815998077393, 5.243310928344727, -0.98486328125, -0.282470703125, -0.228759765625, 0, 
150, 3882483800, 0.22284208238124847, 0.6428046822547913, -0.23109473288059235, 0.6955137848854065, 0.9999786615371704, 0.006499270908534527, -0.0005420614033937454, 0.0003667650744318962, 0.08096325397491455, -0.007272124290466309, 0.0004864335060119629, 9.715690612792969, -0.8758738040924072, 0.05878659337759018, 89.37560272216797, -7.454230308532715, 5.043619632720947, -0.98974609375, -0.282470703125, -0.220703125, 0, 
151, 3882492133, 0.21811307966709137, 0.6444820165634155, -0.2272329479455948, 0.6967320442199707, 0.9999792575836182, 0.006409690715372562, -0.0005420539528131485, 0.0003519980236887932, 0.08108866214752197, -0.005765736103057861, 0.0004240870475769043, 9.73081111907959, -0.6950178742408752, 0.05005909129977226, 88.14371490478516, -7.454126358032227, 4.840547561645508, -0.9892578125, -0.282958984375, -0.212890625, 0, 
152, 3882500466, 0.21366780996322632, 0.6461395621299744, -0.22318187355995178, 0.6978827714920044, 0.9999798536300659, 0.00631315354257822, -0.0005229245871305466, 0.0003496212884783745, 0.08127444982528687, -0.005184948444366455, -0.0002402663230895996, 9.753089904785156, -0.6258141398429871, -0.02999795600771904, 86.81614685058594, -7.191064834594727, 4.807861804962158, -0.9892578125, -0.282958984375, -0.20849609375, 0, 
153, 3882508799, 0.2090732306241989, 0.6476632356643677, -0.21938151121139526, 0.699066162109375, 0.9999803900718689, 0.0062373923137784, -0.00043852999806404114, 0.0003275470808148384, 0.08242708444595337, -0.0052111148834228516, -0.00022125244140625, 9.891429901123047, -0.6287640333175659, -0.026981232687830925, 85.7742919921875, -6.030501365661621, 4.504304885864258, -0.987060546875, -0.28271484375, -0.20068359375, 0, 
154, 3882517132, 0.20479808747768402, 0.6491278409957886, -0.21536137163639069, 0.7002223134040833, 0.9999810457229614, 0.006142058409750462, -0.00035529211163520813, 0.000293622724711895, 0.08301609754562378, -0.004247546195983887, 0.00022804737091064453, 9.962188720703125, -0.5124838352203369, 0.02696366421878338, 84.46327209472656, -4.885843753814697, 4.0377888679504395, -0.989501953125, -0.283203125, -0.1962890625, 0, 
155, 3882525465, 0.2004067748785019, 0.6504753232002258, -0.21159355342388153, 0.7013900876045227, 0.9999816417694092, 0.006043293513357639, -0.00028474442660808563, 0.00024671945720911026, 0.08336764574050903, -0.00547713041305542, 0.0014168620109558105, 10.004403114318848, -0.6587201952934265, 0.1711563616991043, 83.10508728027344, -3.9156980514526367, 3.3927929401397705, -0.991943359375, -0.28173828125, -0.189453125, 0, 
156, 3882533798, 0.1963411420583725, 0.651778519153595, -0.2076057493686676, 0.702521026134491, 0.9999822974205017, 0.005945081822574139, -0.0002219807356595993, 0.00019620079547166824, 0.0828893780708313, -0.004758119583129883, 0.0013077855110168457, 9.94704818725586, -0.5720136165618896, 0.1581292301416397, 81.7544937133789, -3.0525941848754883, 2.6980783939361572, -0.9853515625, -0.2861328125, -0.18505859375, 0, 
157, 3882542131, 0.19211575388908386, 0.6530349254608154, -0.203858882188797, 0.7036188840866089, 0.9999826550483704, 0.00588736217468977, -0.0002339724451303482, 0.0001551089808344841, 0.08430582284927368, -0.0045912861824035645, 0.0018693804740905762, 10.117069244384766, -0.5512232184410095, 0.22521203756332397, 80.96074676513672, -3.217499256134033, 2.1329991817474365, -0.990234375, -0.283203125, -0.17529296875, 0, 
158, 3882550464, 0.1881755143404007, 0.6542720198631287, -0.19988390803337097, 0.7046740651130676, 0.999983012676239, 0.005825853906571865, -0.00020319409668445587, 0.00011408422142267227, 0.08606147766113281, -0.004346311092376709, 0.001860201358795166, 10.327775955200195, -0.5214540362358093, 0.22417323291301727, 80.11490631103516, -2.7942473888397217, 1.5688422918319702, -0.99169921875, -0.283203125, -0.17333984375, 0, 
159, 3882558797, 0.18410950899124146, 0.655430257320404, -0.19619008898735046, 0.7057088613510132, 0.9999836683273315, 0.005714093334972858, -0.0001836884766817093, 0.00009140279144048691, 0.08538460731506348, -0.00559312105178833, 0.002281486988067627, 10.246552467346191, -0.6705697774887085, 0.2757413387298584, 78.5780029296875, -2.526012897491455, 1.2569358348846436, -0.98876953125, -0.28369140625, -0.16943359375, 0, 
160, 3882567130, 0.1803145557641983, 0.6565845608711243, -0.19233879446983337, 0.706675112247467, 0.9999842643737793, 0.0056105563417077065, -0.0001985263079404831, 0.00009147170931100845, 0.08477246761322021, -0.006816208362579346, 0.0023553967475891113, 10.173084259033203, -0.8173174262046814, 0.2852277457714081, 77.15419006347656, -2.7300565242767334, 1.2578833103179932, -0.98828125, -0.28271484375, -0.1630859375, 0, 
161, 3882575463, 0.1763714998960495, 0.6576794385910034, -0.18881510198116302, 0.7076018452644348, 0.9999849796295166, 0.005480356514453888, -0.0002166861668229103, 0.0001141522079706192, 0.08344107866287231, -0.006371140480041504, 0.0012955069541931152, 10.013276100158691, -0.7648547291755676, 0.1574883610010147, 75.36370849609375, -2.979783058166504, 1.5697762966156006, -0.988037109375, -0.282958984375, -0.15625, 0, 
162, 3882583796, 0.1726900041103363, 0.6587620973587036, -0.18516658246517181, 0.7084664106369019, 0.9999855756759644, 0.005360521376132965, -0.0002304287627339363, 0.0001390744000673294, 0.08275926113128662, -0.005736351013183594, 0.0018175840377807617, 9.931462287902832, -0.6885992288589478, 0.21952137351036072, 73.71575164794922, -3.16876482963562, 1.9124958515167236, -0.989990234375, -0.283203125, -0.154052734375, 0, 
163, 3882592129, 0.1688586324453354, 0.6598002314567566, -0.18184566497802734, 0.7092837691307068, 0.9999862909317017, 0.005232607945799828, -0.0002623246982693672, 0.00016215816140174866, 0.08291095495223999, -0.004944145679473877, 0.001616835594177246, 9.949666023254395, -0.5939185619354248, 0.1945236474275589, 71.95672607421875, -3.607384204864502, 2.2299342155456543, -0.991455078125, -0.28466796875, -0.146728515625, 0, 
164, 3882600462, 0.16531331837177277, 0.6607912182807922, -0.17838795483112335, 0.7100740075111389, 0.9999869465827942, 0.005106179043650627, -0.00022338610142469406, 0.00017132051289081573, 0.08349066972732544, -0.004732906818389893, 0.001537919044494629, 10.0192232131958, -0.568744957447052, 0.1852213442325592, 70.2181167602539, -3.071915626525879, 2.355930805206299, -0.989990234375, -0.281494140625, -0.144287109375, 0, 
165, 3882608795, 0.16168446838855743, 0.6616673469543457, -0.17527563869953156, 0.7108682990074158, 0.9999878406524658, 0.00491951871663332, -0.00016012229025363922, 0.0001854943111538887, 0.08385646343231201, -0.0039174556732177734, 0.0010646581649780273, 10.0631103515625, -0.47135022282600403, 0.12846742570400238, 67.6512222290039, -2.201936960220337, 2.55084228515625, -0.989990234375, -0.281005859375, -0.138916015625, 0, 
166, 3882617128, 0.15838570892810822, 0.6624578833580017, -0.17209038138389587, 0.7116524577140808, 0.999988853931427, 0.0047158049419522285, -0.00008670799434185028, 0.0002098744735121727, 0.08396154642105103, -0.0032643675804138184, 0.0018030405044555664, 10.075725555419922, -0.3928326666355133, 0.2173490673303604, 64.84980773925781, -1.192372441291809, 2.8861072063446045, -0.990234375, -0.281005859375, -0.134521484375, 0, 
167, 3882625461, 0.15499632060527802, 0.6631531119346619, -0.16926133632659912, 0.712429404258728, 0.9999897480010986, 0.004527153447270393, -0.00004462432116270065, 0.00023698247969150543, 0.08305269479751587, -0.0029695630073547363, 0.0026960372924804688, 9.966649055480957, -0.3572576344013214, 0.32470789551734924, 62.25553512573242, -0.613655149936676, 3.2588846683502197, -0.9912109375, -0.281982421875, -0.131591796875, 0, 
168, 3882633794, 0.15188488364219666, 0.6638407707214355, -0.1663484126329422, 0.7131447792053223, 0.9999904036521912, 0.00437008123844862, -0.00007075443863868713, 0.000263056717813015, 0.08198696374893188, -0.0007867813110351562, 0.0026726722717285156, 9.838826179504395, -0.09560394287109375, 0.3204518258571625, 60.09553527832031, -0.9729856252670288, 3.617446184158325, -0.99267578125, -0.277587890625, -0.124755859375, 0, 
169, 3882642127, 0.1486474573612213, 0.6645137667655945, -0.1637193262577057, 0.7138082981109619, 0.9999908804893494, 0.0042607756331563, -0.00010833144187927246, 0.00025504734367132187, 0.08139938116073608, -0.0006233453750610352, 0.0030997395515441895, 9.768336296081543, -0.07571234554052353, 0.3712451457977295, 58.5923957824707, -1.489728331565857, 3.5073039531707764, -0.9921875, -0.276123046875, -0.122802734375, 0, 
170, 3882650460, 0.14568299055099487, 0.6652001738548279, -0.160936638712883, 0.7144127488136292, 0.9999912977218628, 0.004161050543189049, -0.00013964343816041946, 0.00022731907665729523, 0.0806121826171875, -0.0006041526794433594, 0.003279566764831543, 9.6738862991333, -0.07306375354528427, 0.39251595735549927, 57.22100830078125, -1.920317530632019, 3.1259958744049072, -0.994140625, -0.277587890625, -0.117919921875, 0, 
171, 3882658793, 0.14263881742954254, 0.6658722758293152, -0.15839511156082153, 0.7149685621261597, 0.999991774559021, 0.004051452502608299, -0.00016115885227918625, 0.00017061829566955566, 0.08024507761001587, -0.0011211037635803223, 0.0039078593254089355, 9.629846572875977, -0.13428202271461487, 0.4679539203643799, 55.71385192871094, -2.2161879539489746, 2.3462705612182617, -0.99365234375, -0.280029296875, -0.117919921875, 0, 
172, 3882667126, 0.13987305760383606, 0.6665565371513367, -0.1557309925556183, 0.7154626250267029, 0.9999922513961792, 0.003926308825612068, -0.00019748788326978683, 0.00014779157936573029, 0.0806581974029541, -0.0022630691528320312, 0.004618465900421143, 9.679439544677734, -0.27083513140678406, 0.5533922910690308, 53.992916107177734, -2.715768814086914, 2.0323665142059326, -0.993408203125, -0.277587890625, -0.111083984375, 0, 
173, 3882675459, 0.13704723119735718, 0.6671788692474365, -0.15333794057369232, 0.7159460783004761, 0.999992847442627, 0.003780676983296871, -0.0001614093780517578, 0.00012103188782930374, 0.08122503757476807, -0.0028936266899108887, 0.004253029823303223, 9.74743366241455, -0.346499502658844, 0.510122537612915, 51.99024200439453, -2.219632148742676, 1.6643785238265991, -0.993896484375, -0.277099609375, -0.108642578125, 0, 
174, 3882683792, 0.13451318442821503, 0.6677521467208862, -0.15081393718719482, 0.7164282202720642, 0.9999933242797852, 0.0036542927846312523, -0.00011020898818969727, 0.00009011011570692062, 0.08099102973937988, -0.0027486085891723633, 0.00470966100692749, 9.719345092773438, -0.3286559283733368, 0.5653148293495178, 50.252254486083984, -1.5155465602874756, 1.2391554117202759, -0.993408203125, -0.276611328125, -0.102783203125, 0, 
175, 3882692125, 0.13194164633750916, 0.6682464480400085, -0.1485416293144226, 0.7169199585914612, 0.9999938607215881, 0.003507637418806553, -0.000043878331780433655, 0.000047328881919384, 0.08040362596511841, -0.0021991729736328125, 0.005233287811279297, 9.648836135864258, -0.26216447353363037, 0.6285200119018555, 48.23550796508789, -0.6033957600593567, 0.6508462429046631, -0.992919921875, -0.275146484375, -0.102783203125, 0, 
176, 3882700458, 0.12968704104423523, 0.668710470199585, -0.14615914225578308, 0.7173881530761719, 0.9999943971633911, 0.0033496692776679993, -0.00001867767423391342, -0.0000018319115042686462, 0.08012926578521729, -0.0015239119529724121, 0.005026042461395264, 9.615907669067383, -0.18083561956882477, 0.6035804748535156, 46.06318664550781, -0.25684720277786255, -0.025191644206643105, -0.993896484375, -0.273681640625, -0.099365234375, 0, 
177, 3882708791, 0.12736596167087555, 0.6691476106643677, -0.14403489232063293, 0.7178260684013367, 0.9999948143959045, 0.0032183146104216576, -0.000023905187845230103, -0.000024750828742980957, 0.07932925224304199, -0.0008997321128845215, 0.0052051544189453125, 9.519908905029297, -0.10572339594364166, 0.6247610449790955, 44.25685119628906, -0.3287336528301239, -0.340362548828125, -0.994384765625, -0.275146484375, -0.095947265625, 0, 
178, 3882717124, 0.12531788647174835, 0.6695876121520996, -0.14182160794734955, 0.7182168364524841, 0.9999952912330627, 0.0030758539214730263, -0.00004540383815765381, -0.00004404783248901367, 0.07941311597824097, -0.00039255619049072266, 0.005043685436248779, 9.529984474182129, -0.04482448473572731, 0.6049758195877075, 42.29778289794922, -0.6243735551834106, -0.6057263016700745, -0.995849609375, -0.274169921875, -0.094482421875, 0, 
179, 3882725457, 0.12323662638664246, 0.6699890494346619, -0.13991130888462067, 0.7185771465301514, 0.9999958276748657, 0.0028876615688204765, -0.000045202672481536865, -0.00004990585148334503, 0.07987958192825317, 0.00016379356384277344, 0.004692137241363525, 9.585957527160645, 0.021760307252407074, 0.562586784362793, 39.709842681884766, -0.6216071844100952, -0.6862831711769104, -0.996826171875, -0.272216796875, -0.093017578125, 0, 
180, 3882733790, 0.12146583944559097, 0.6703504323959351, -0.13798801600933075, 0.7189134359359741, 0.9999964237213135, 0.0026644235476851463, -0.0000225752592086792, -0.000045238062739372253, 0.08022457361221313, 0.0002556443214416504, 0.005443274974822998, 9.627346992492676, 0.03285156935453415, 0.6529184579849243, 36.63996124267578, -0.3104448914527893, -0.6220935583114624, -0.9931640625, -0.27490234375, -0.08740234375, 0, 
181, 3882742123, 0.11966588348150253, 0.6706916689872742, -0.13639302551746368, 0.7192013263702393, 0.9999969601631165, 0.0024543777108192444, -0.000051693059504032135, -0.00003126170486211777, 0.08042484521865845, 0.0007084012031555176, 0.0057486891746521, 9.651399612426758, 0.08700340241193771, 0.6891620755195618, 33.751502990722656, -0.7108597755432129, -0.4298969507217407, -0.992431640625, -0.27001953125, -0.088623046875, 0, 
182, 3882750456, 0.11813933402299881, 0.6710581183433533, -0.13475479185581207, 0.7194207906723022, 0.9999973773956299, 0.0022802837193012238, -0.0001057041808962822, -0.000045095570385456085, 0.08133500814437866, 0.000873863697052002, 0.005396425724029541, 9.76065444946289, 0.1067846268415451, 0.6463239192962646, 31.357433319091797, -1.4535961151123047, -0.6201338768005371, -0.99365234375, -0.27099609375, -0.0869140625, 0, 
183, 3882758789, 0.11659996211528778, 0.6714475750923157, -0.13339868187904358, 0.7195612192153931, 0.9999977946281433, 0.0020928215235471725, -0.00018073152750730515, -0.00007198844105005264, 0.08219367265701294, 0.0012551546096801758, 0.004349052906036377, 9.863718032836914, 0.15242257714271545, 0.5198113322257996, 28.779539108276367, -2.4853384494781494, -0.989952564239502, -0.994140625, -0.2724609375, -0.0810546875, 0, 
184, 3882767122, 0.11534968763589859, 0.6718266606330872, -0.13198058307170868, 0.7196703553199768, 0.999998152256012, 0.0019232546910643578, -0.000177653506398201, -0.00011147372424602509, 0.08331519365310669, 0.0011746883392333984, 0.0037766098976135254, 9.998287200927734, 0.1429595649242401, 0.45115599036216736, 26.44772720336914, -2.4430105686187744, -1.5329362154006958, -0.99462890625, -0.2734375, -0.0791015625, 0, 
185, 3882775455, 0.11411423236131668, 0.672171950340271, -0.13085375726222992, 0.7197505235671997, 0.9999985098838806, 0.0017095906659960747, -0.00017647631466388702, -0.00012671016156673431, 0.08271640539169312, 0.0007510185241699219, 0.0040593743324279785, 9.926440238952637, 0.09222251176834106, 0.48523062467575073, 23.5095157623291, -2.4268219470977783, -1.7424604892730713, -0.9931640625, -0.27392578125, -0.080078125, 0, 
186, 3882783788, 0.11318957805633545, 0.6724972128868103, -0.12973888218402863, 0.719794750213623, 0.9999988675117493, 0.0014714812859892845, -0.00017434917390346527, -0.00014298409223556519, 0.08229207992553711, -0.00030118227005004883, 0.004259228706359863, 9.875537872314453, -0.03399043157696724, 0.5094663500785828, 20.235136032104492, -2.3975698947906494, -1.9662516117095947, -0.99560546875, -0.2724609375, -0.07568359375, 0, 
187, 3882792121, 0.11225918680429459, 0.6728006601333618, -0.12892381846904755, 0.7198033332824707, 0.9999991655349731, 0.0012653572484850883, -0.00018930621445178986, -0.0001287367194890976, 0.08112376928329468, -0.0008854866027832031, 0.0047242045402526855, 9.735361099243164, -0.10430993139743805, 0.5652326941490173, 17.40060806274414, -2.6032519340515137, -1.7703279256820679, -0.9951171875, -0.27197265625, -0.078125, 0, 
188, 3882800454, 0.1115475669503212, 0.6731212735176086, -0.12811899185180664, 0.7197579145431519, 0.9999993443489075, 0.001092870719730854, -0.0002387426793575287, -0.00009780004620552063, 0.0807349681854248, -0.0017552971839904785, 0.0042882561683654785, 9.68872356414795, -0.2091459184885025, 0.5125431418418884, 15.028653144836426, -3.2830793857574463, -1.344901204109192, -0.99365234375, -0.27294921875, -0.07275390625, 0, 
189, 3882808787, 0.11076952517032623, 0.6734341382980347, -0.1275661736726761, 0.7196833491325378, 0.9999995231628418, 0.0009637605398893356, -0.00026152003556489944, -0.00006471667438745499, 0.08102720975875854, -0.002364635467529297, 0.00397878885269165, 9.723796844482422, -0.2826659083366394, 0.4751770794391632, 13.253190994262695, -3.5963029861450195, -0.8899538516998291, -0.99462890625, -0.271484375, -0.0712890625, 0, 
190, 3882817120, 0.11020217090845108, 0.6737236976623535, -0.12698011100292206, 0.7196030616760254, 0.9999996423721313, 0.000830458477139473, -0.00024554040282964706, -0.000054751522839069366, 0.0812426209449768, -0.002769768238067627, 0.004269063472747803, 9.749645233154297, -0.33143675327301025, 0.510212242603302, 11.420083045959473, -3.376558780670166, -0.7529177665710449, -0.998046875, -0.27001953125, -0.07470703125, 0, 
191, 3882825453, 0.10957232117652893, 0.674002468585968, -0.12661775946617126, 0.7195020914077759, 0.9999997019767761, 0.000719340518116951, -0.0002563474699854851, -0.00003628712147474289, 0.08151853084564209, -0.0033631324768066406, 0.004105687141418457, 9.782756805419922, -0.40286925435066223, 0.49044057726860046, 9.89203929901123, -3.525171995162964, -0.4990037679672241, -0.99267578125, -0.26904296875, -0.07275390625, 0, 
192, 3882833786, 0.10913494229316711, 0.674266517162323, -0.126188263297081, 0.7193965315818787, 0.9999997615814209, 0.0006243251264095306, -0.00024472642689943314, -0.000042836181819438934, 0.08196377754211426, -0.003873884677886963, 0.003714442253112793, 9.836173057556152, -0.4641924798488617, 0.44365471601486206, 8.585432052612305, -3.3653652667999268, -0.5890634655952454, -0.9951171875, -0.27197265625, -0.068359375, 0, 
193, 3882842119, 0.10866028815507889, 0.6745151281356812, -0.12592726945877075, 0.7192812561988831, 0.9999998211860657, 0.0005362164229154587, -0.00023490097373723984, -0.00007359404116868973, 0.08199995756149292, -0.003981173038482666, 0.003469705581665039, 9.840522766113281, -0.4767872095108032, 0.41426944732666016, 7.373800754547119, -3.230250120162964, -1.0120314359664917, -0.9951171875, -0.27197265625, -0.068359375, 0, 
194, 3882850452, 0.10839331150054932, 0.674759566783905, -0.1256052553653717, 0.7191485166549683, 0.9999998807907104, 0.0004264935851097107, -0.00023897085338830948, -0.00009378138929605484, 0.08218586444854736, -0.004532456398010254, 0.003547489643096924, 9.86284351348877, -0.5428523421287537, 0.42367100715637207, 5.8649420738220215, -3.2862167358398438, -1.2896382808685303, -0.99365234375, -0.2744140625, -0.068359375, 0, 
195, 3882858785, 0.10811152309179306, 0.6749836802482605, -0.12546934187412262, 0.7190043330192566, 0.9999999403953552, 0.00030965544283390045, -0.0002244887873530388, -0.00012563634663820267, 0.08252835273742676, -0.005294382572174072, 0.003908216953277588, 9.90396785736084, -0.6340739130973816, 0.4671412706375122, 4.258238792419434, -3.0870659351348877, -1.7276930809020996, -0.99560546875, -0.271484375, -0.0673828125, 0, 
196, 3882867118, 0.10803323239088058, 0.6751958727836609, -0.1252662092447281, 0.7188522815704346, 0.9999999403953552, 0.00020783394575119019, -0.00021764915436506271, -0.00014778878539800644, 0.08236539363861084, -0.005715370178222656, 0.003887176513671875, 9.8844575881958, -0.6842198967933655, 0.4643494188785553, 2.8580362796783447, -2.9930105209350586, -2.032323122024536, -0.9931640625, -0.2705078125, -0.06689453125, 0, 
197, 3882875451, 0.10790631175041199, 0.6753812432289124, -0.12523506581783295, 0.7187027335166931, 0.9999999403953552, 0.00012457463890314102, -0.00019082240760326385, -0.00016088411211967468, 0.08242607116699219, -0.005071282386779785, 0.003921985626220703, 9.891738891601562, -0.6066828370094299, 0.46857503056526184, 1.7130928039550781, -2.624101400375366, -2.2124037742614746, -0.9912109375, -0.271484375, -0.06787109375, 0, 
198, 3882883784, 0.10795678943395615, 0.6755426526069641, -0.12510676681995392, 0.718565821647644, 0.9999999403953552, 0.00006342306733131409, -0.00016256701201200485, -0.00018212664872407913, 0.08230823278427124, -0.0042075514793396, 0.0035761594772338867, 9.877533912658691, -0.5032155513763428, 0.4276817739009857, 0.8721647262573242, -2.235546588897705, -2.5045218467712402, -0.99267578125, -0.27001953125, -0.0673828125, 0, 
199, 3882892117, 0.10796055942773819, 0.6756675839424133, -0.1251213103532791, 0.7184450030326843, 1, 4.6566128730773926e-7, -0.00011511612683534622, -0.0002131955698132515, 0.08218270540237427, -0.0037832260131835938, 0.003332078456878662, 9.862462997436523, -0.4518701732158661, 0.3987128734588623, 0.006403558887541294, -1.5830237865447998, -2.931767225265503, -0.991455078125, -0.2744140625, -0.06640625, 0, 
200, 3882900450, 0.10814184695482254, 0.6757516860961914, -0.1250244528055191, 0.7183555364608765, 0.9999999403953552, -0.0000498918816447258, -0.00006166007369756699, -0.00024049263447523117, 0.08257037401199341, -0.003556370735168457, 0.003008604049682617, 9.908956527709961, -0.4245833158493042, 0.3604592978954315, -0.6860901713371277, -0.8479208946228027, -3.3071436882019043, -0.9912109375, -0.27392578125, -0.06787109375, 0, 
201, 3882908783, 0.10827510803937912, 0.6757895350456238, -0.1251000016927719, 0.7182867527008057, 0.9999999403953552, -0.0001336643472313881, -0.000006307847797870636, -0.0002462593838572502, 0.08282899856567383, -0.003499150276184082, 0.0031739473342895508, 9.939996719360352, -0.4171866178512573, 0.3807535171508789, -1.838090181350708, -0.08674260228872299, -3.3864450454711914, -0.991943359375, -0.27294921875, -0.06396484375, 0, 
202, 3882917116, 0.10863175988197327, 0.6757891774177551, -0.1251029670238495, 0.7182326316833496, 0.9999999403953552, -0.00024470407515764236, 0.00003437139093875885, -0.0002851290628314018, 0.0833972692489624, -0.00314486026763916, 0.003421485424041748, 10.008170127868652, -0.3745165169239044, 0.4108581840991974, -3.3650569915771484, 0.4726594388484955, -3.920962333679199, -0.993896484375, -0.2744140625, -0.06591796875, 0, 
203, 3882925449, 0.1089734360575676, 0.6757680773735046, -0.1252901554107666, 0.7181682586669922, 0.9999998807907104, -0.00036091823130846024, 0.00005514174699783325, -0.0003099823370575905, 0.0836632251739502, -0.0023024678230285645, 0.003744661808013916, 10.040050506591797, -0.27324116230010986, 0.44984984397888184, -4.9631805419921875, 0.758283793926239, -4.262733459472656, -0.995849609375, -0.27392578125, -0.0673828125, 0, 
204, 3882933782, 0.10951808094978333, 0.675733745098114, -0.12542469799518585, 0.7180941700935364, 0.9999998211860657, -0.00047241803258657455, 0.000054836273193359375, -0.0003294656053185463, 0.08371371030807495, -0.001715540885925293, 0.003790438175201416, 10.046088218688965, -0.2028421312570572, 0.4553154706954956, -6.4964752197265625, 0.7540832161903381, -4.530659198760986, -0.9921875, -0.27392578125, -0.06884765625, 0, 
205, 3882942115, 0.11001937091350555, 0.6756993532180786, -0.12573353946208954, 0.717995822429657, 0.9999997615814209, -0.0005618315190076828, 0.00004991423338651657, -0.0003409106284379959, 0.08325600624084473, -0.0012218356132507324, 0.0035781264305114746, 9.991148948669434, -0.14336904883384705, 0.4298211932182312, -7.726047992706299, 0.6863974928855896, -4.688045501708984, -0.991943359375, -0.27490234375, -0.06689453125, 0, 
206, 3882950448, 0.1106809601187706, 0.6756536960601807, -0.12598547339439392, 0.7178929448127747, 0.9999997615814209, -0.0006406018510460854, 0.000045901164412498474, -0.0003362996503710747, 0.08278769254684448, -0.0010039210319519043, 0.0033040642738342285, 9.934942245483398, -0.11732449382543564, 0.3968910276889801, -8.809261322021484, 0.6312116384506226, -4.624637603759766, -0.989501953125, -0.27392578125, -0.06494140625, 0, 
207, 3882958781, 0.11128289997577667, 0.6756108403205872, -0.12643595039844513, 0.7177609205245972, 0.9999997019767761, -0.0007371148094534874, 0.000031461939215660095, -0.00031493697315454483, 0.08280444145202637, -0.0013789534568786621, 0.0033603906631469727, 9.936969757080078, -0.16259542107582092, 0.4034581482410431, -10.136463165283203, 0.43265005946159363, -4.330868244171143, -0.991455078125, -0.2802734375, -0.06640625, 0, 
208, 3882967114, 0.11201101541519165, 0.6755611896514893, -0.12684424221515656, 0.7176223397254944, 0.9999996423721313, -0.000802614726126194, 0.000016046687960624695, -0.00028221961110830307, 0.08268976211547852, -0.0018982887268066406, 0.003587663173675537, 9.923223495483398, -0.22537873685359955, 0.4305141568183899, -11.037187576293945, 0.22066661715507507, -3.880953550338745, -0.9912109375, -0.2783203125, -0.0693359375, 0, 
209, 3882975447, 0.11261702328920364, 0.6755238175392151, -0.12741035223007202, 0.7174625396728516, 0.9999996423721313, -0.0008259592577815056, -0.000002010725438594818, -0.00023837294429540634, 0.08308207988739014, -0.0023604631423950195, 0.003557264804840088, 9.970314979553223, -0.2812262177467346, 0.426633358001709, -11.358211517333984, -0.02765057235956192, -3.2779951095581055, -0.99072265625, -0.27685546875, -0.0693359375, 0, 
210, 3882983780, 0.11333797872066498, 0.6754762530326843, -0.12788714468479156, 0.7173089981079102, 0.9999996423721313, -0.0008485745638608932, -0.0000037569552659988403, -0.00023308582603931427, 0.08400505781173706, -0.002701103687286377, 0.00345689058303833, 10.081085205078125, -0.3221464455127716, 0.41453081369400024, -11.669205665588379, -0.05166391283273697, -3.2052884101867676, -0.990478515625, -0.279296875, -0.06494140625, 0, 
211, 3882992113, 0.11402153223752975, 0.6754042506217957, -0.12848050892353058, 0.7171623110771179, 0.9999995827674866, -0.0009005134925246239, 0.00003989413380622864, -0.0002659289166331291, 0.08412879705429077, -0.003297090530395508, 0.0034638643264770508, 10.095947265625, -0.39332786202430725, 0.41572797298431396, -12.383447647094727, 0.548605740070343, -3.6569318771362305, -0.990234375, -0.27734375, -0.0703125, 0, 
212, 3883000446, 0.11486008018255234, 0.6752881407737732, -0.12894947826862335, 0.7170536518096924, 0.9999995231628418, -0.0009243246167898178, 0.00009219348430633545, -0.00030919164419174194, 0.08428353071212769, -0.0035837888717651367, 0.003641963005065918, 10.114520072937012, -0.4273623824119568, 0.4375862777233124, -12.710886001586914, 1.267802357673645, -4.251860618591309, -0.98974609375, -0.2783203125, -0.07275390625, 0, 
213, 3883008779, 0.11565393954515457, 0.6751437187194824, -0.12951450049877167, 0.7169601321220398, 0.999999463558197, -0.0009562168270349503, 0.00014671962708234787, -0.00034626759588718414, 0.08387237787246704, -0.0033576488494873047, 0.003996908664703369, 10.065155982971191, -0.3999441862106323, 0.48072755336761475, -13.149456024169922, 2.017620801925659, -4.761713027954102, -0.9892578125, -0.279296875, -0.0712890625, 0, 
214, 3883017112, 0.11657075583934784, 0.6749735474586487, -0.12997134029865265, 0.7168892025947571, 0.999999463558197, -0.0009698644280433655, 0.0001683635637164116, -0.00036244094371795654, 0.08337098360061646, -0.0028594136238098145, 0.0038246512413024902, 10.004965782165527, -0.3399559557437897, 0.4603319466114044, -13.337128639221191, 2.315258264541626, -4.9841203689575195, -0.99169921875, -0.279296875, -0.0703125, 0, 
215, 3883025445, 0.11737826466560364, 0.6748052835464478, -0.13053293526172638, 0.7168139219284058, 0.999999463558197, -0.0009633554145693779, 0.00017958134412765503, -0.00035146158188581467, 0.08284193277359009, -0.0023374557495117188, 0.004042565822601318, 9.94144058227539, -0.27751049399375916, 0.4866284132003784, -13.247618675231934, 2.469519853591919, -4.833137512207031, -0.98828125, -0.2783203125, -0.0712890625, 0, 
216, 3883033778, 0.11826494336128235, 0.674628734588623, -0.13100649416446686, 0.7167479395866394, 0.999999463558197, -0.0009615784510970116, 0.00017077475786209106, -0.0003285324200987816, 0.08232194185256958, -0.0017710328102111816, 0.004461050033569336, 9.879005432128906, -0.20977354049682617, 0.5368467569351196, -13.223184585571289, 2.3484158515930176, -4.517827033996582, -0.990234375, -0.28466796875, -0.0751953125, 0, 
217, 3883042111, 0.1190396249294281, 0.6744731068611145, -0.13162796199321747, 0.7166522741317749, 0.999999463558197, -0.0009855469688773155, 0.0001460891216993332, -0.0002889195457100868, 0.0827144980430603, -0.0017538666725158691, 0.004349946975708008, 9.92612075805664, -0.20812655985355377, 0.5232543349266052, -13.552789688110352, 2.0089502334594727, -3.9730889797210693, -0.99072265625, -0.28125, -0.0751953125, 0, 
218, 3883050444, 0.1198742538690567, 0.6743048429489136, -0.13220420479774475, 0.7165654301643372, 0.999999463558197, -0.001001708209514618, 0.00013211462646722794, -0.00022587180137634277, 0.08347737789154053, -0.0022115111351013184, 0.003868997097015381, 10.017683982849121, -0.26359304785728455, 0.4653575122356415, -13.775031089782715, 1.8167794942855835, -3.1060850620269775, -0.99072265625, -0.28759765625, -0.07763671875, 0, 
219, 3883058777, 0.12057249993085861, 0.6741394996643066, -0.13294148445129395, 0.7164674997329712, 0.999999463558197, -0.0010186154395341873, 0.00012793857604265213, -0.00015163235366344452, 0.08379107713699341, -0.002688765525817871, 0.0033960938453674316, 10.055327415466309, -0.32155972719192505, 0.4085021913051605, -14.007529258728027, 1.7593523263931274, -2.0851781368255615, -0.99169921875, -0.28369140625, -0.080078125, 0, 
220, 3883067110, 0.12130220979452133, 0.6739540696144104, -0.13359114527702332, 0.7163978815078735, 0.9999995231628418, -0.0009833136573433876, 0.00013394467532634735, -0.00009698700159788132, 0.08380722999572754, -0.0034638047218322754, 0.0033195018768310547, 10.057256698608398, -0.4150960147380829, 0.3992845118045807, -13.522077560424805, 1.8419455289840698, -1.3337206840515137, -0.99169921875, -0.2822265625, -0.08056640625, 0, 
221, 3883075443, 0.12186397612094879, 0.6737801432609558, -0.13432371616363525, 0.7163293361663818, 0.9999995827674866, -0.0009204009547829628, 0.00013716891407966614, -0.000049882568418979645, 0.0835002064704895, -0.0037909746170043945, 0.0033184289932250977, 10.020393371582031, -0.4548027217388153, 0.3991786539554596, -12.65693187713623, 1.8862839937210083, -0.6859622001647949, -0.98388671875, -0.28515625, -0.0771484375, 0, 
222, 3883083776, 0.1224566325545311, 0.673599362373352, -0.13489533960819244, 0.7162908315658569, 0.9999996423721313, -0.0008303159847855568, 0.00014293380081653595, -0.00004853587597608566, 0.0823867917060852, -0.004268348217010498, 0.0028834939002990723, 9.886784553527832, -0.5120291113853455, 0.34702521562576294, -11.418123245239258, 1.9655596017837524, -0.6674429774284363, -0.98974609375, -0.283203125, -0.08251953125, 0, 
223, 3883092109, 0.12289752066135406, 0.6734543442726135, -0.1354990452528, 0.7162376046180725, 0.9999997019767761, -0.000741087831556797, 0.00012828968465328217, -0.00005108211189508438, 0.08165866136550903, -0.00434565544128418, 0.002475142478942871, 9.799419403076172, -0.5212200880050659, 0.2978965640068054, -10.1910982131958, 1.7641805410385132, -0.7024576663970947, -0.98828125, -0.28271484375, -0.083984375, 0, 
224, 3883100442, 0.12336074560880661, 0.6733216047286987, -0.1359327882528305, 0.7162007689476013, 0.9999997615814209, -0.0006381580606102943, 0.00010951794683933258, -0.00005544442683458328, 0.0811537504196167, -0.0044155120849609375, 0.0028225183486938477, 9.738831520080566, -0.529562771320343, 0.3394354283809662, -8.775654792785645, 1.506040334701538, -0.7624461650848389, -0.98828125, -0.283203125, -0.083984375, 0, 
225, 3883108775, 0.1236652284860611, 0.6732475757598877, -0.13640910387039185, 0.7161272168159485, 0.9999998211860657, -0.0005519883707165718, 0.00006318464875221252, -0.00005111563950777054, 0.08101588487625122, -0.004140377044677734, 0.003104269504547119, 9.722296714782715, -0.49658623337745667, 0.37285277247428894, -7.590689659118652, 0.8688862323760986, -0.7029188275337219, -0.9892578125, -0.28271484375, -0.08203125, 0, 
226, 3883117108, 0.12402372807264328, 0.6731746792793274, -0.13675330579280853, 0.7160682082176208, 0.9999998807907104, -0.0004990585148334503, 0.000048951245844364166, -0.00005185231566429138, 0.08082115650177002, -0.0035942792892456055, 0.002777993679046631, 9.698933601379395, -0.43097564578056335, 0.3336465358734131, -6.862821578979492, 0.6731548309326172, -0.713049054145813, -0.98876953125, -0.28662109375, -0.0810546875, 0, 
227, 3883125441, 0.12427911162376404, 0.6731127500534058, -0.1371777355670929, 0.7160006165504456, 0.9999998807907104, -0.0004793815314769745, 0.00006020534783601761, -0.000051856040954589844, 0.08083170652389526, -0.0029448866844177246, 0.002402007579803467, 9.700193405151367, -0.3530321717262268, 0.28867107629776, -6.592233180999756, 0.8279160857200623, -0.7131003141403198, -0.99169921875, -0.283203125, -0.0849609375, 0, 
228, 3883133774, 0.12461734563112259, 0.6730175614356995, -0.13750876486301422, 0.7159677743911743, 0.9999998807907104, -0.00047522224485874176, 0.0000818176195025444, -0.00004015490412712097, 0.08059167861938477, -0.0023837685585021973, 0.002383112907409668, 9.671375274658203, -0.28580668568611145, 0.2866523265838623, -6.535036087036133, 1.1251180171966553, -0.5521916747093201, -0.9873046875, -0.28125, -0.08349609375, 0, 
229, 3883142107, 0.12485688179731369, 0.6729218363761902, -0.13794054090976715, 0.7159330248832703, 0.9999998807907104, -0.000473647378385067, 0.00010536052286624908, -0.000025502406060695648, 0.08015376329421997, -0.002065896987915039, 0.0021372437477111816, 9.618814468383789, -0.247792586684227, 0.25738435983657837, -6.5133795738220215, 1.4488691091537476, -0.3506973087787628, -0.99169921875, -0.28271484375, -0.08203125, 0, 
230, 3883150440, 0.1251874417066574, 0.6727917194366455, -0.1382748782634735, 0.7159331440925598, 0.9999998807907104, -0.0004721377044916153, 0.00012788455933332443, -0.000023931264877319336, 0.0804254412651062, -0.00168532133102417, 0.0016448497772216797, 9.651418685913086, -0.20210997760295868, 0.1985219120979309, -6.492618560791016, 1.7586090564727783, -0.3290916383266449, -0.99072265625, -0.28271484375, -0.08251953125, 0, 
231, 3883158773, 0.12542881071567535, 0.672659695148468, -0.13869111239910126, 0.7159344553947449, 0.9999998807907104, -0.00046355463564395905, 0.00016026291996240616, -0.00002504698932170868, 0.08049023151397705, -0.0014672279357910156, 0.0017816424369812012, 9.659183502197266, -0.17593388259410858, 0.21525521576404572, -6.374588966369629, 2.2038614749908447, -0.34443458914756775, -0.98974609375, -0.28759765625, -0.08740234375, 0, 
232, 3883167106, 0.12575991451740265, 0.6725095510482788, -0.1389814168214798, 0.715961217880249, 0.9999998807907104, -0.0004397016018629074, 0.00016613025218248367, -0.00004807673394680023, 0.08055144548416138, -0.0021005868911743164, 0.002231895923614502, 9.666528701782227, -0.25175657868385315, 0.2692353427410126, -6.046572685241699, 2.284546136856079, -0.6611289978027344, -0.98681640625, -0.283203125, -0.088134765625, 0, 
233, 3883175439, 0.12600216269493103, 0.6724018454551697, -0.13934309780597687, 0.7159493565559387, 0.9999998807907104, -0.0004241606220602989, 0.00014390051364898682, -0.00006402749568223953, 0.08109158277511597, -0.002547621726989746, 0.0024641752243041992, 9.731355667114258, -0.30521976947784424, 0.2970077097415924, -5.832860946655273, 1.9788533449172974, -0.8804765939712524, -0.98876953125, -0.28564453125, -0.08544921875, 0, 
234, 3883183772, 0.12632127106189728, 0.6722860336303711, -0.13959066569805145, 0.7159538269042969, 0.9999998807907104, -0.00039977487176656723, 0.00013050436973571777, -0.00007618311792612076, 0.0815579891204834, -0.0034142732620239258, 0.002724885940551758, 9.787338256835938, -0.40912705659866333, 0.3280893862247467, -5.497519493103027, 1.7946356534957886, -1.0476350784301758, -0.98974609375, -0.2822265625, -0.0859375, 0, 
235, 3883192105, 0.12652936577796936, 0.6721950769424438, -0.13993608951568604, 0.7159349918365479, 0.9999999403953552, -0.000388328917324543, 0.00012674182653427124, -0.00005127955228090286, 0.08229690790176392, -0.0037657618522644043, 0.003092050552368164, 9.875998497009277, -0.45152726769447327, 0.3721963167190552, -5.340119361877441, 1.7428948879241943, -0.7051726579666138, -0.9892578125, -0.28076171875, -0.090087890625, 0, 
236, 3883200438, 0.12679778039455414, 0.6720827221870422, -0.14018094539642334, 0.7159450650215149, 0.9999999403953552, -0.0003625405952334404, 0.00012538395822048187, -0.00004167389124631882, 0.08231896162033081, -0.004022419452667236, 0.003626585006713867, 9.87863540649414, -0.48245570063591003, 0.43627214431762695, -4.985490322113037, 1.724222183227539, -0.5730800628662109, -0.990234375, -0.28271484375, -0.08935546875, 0, 
237, 3883208771, 0.12692146003246307, 0.6719945669174194, -0.1405022293329239, 0.7159427404403687, 0.9999999403953552, -0.00031161587685346603, 0.00012864917516708374, -0.0000045979395508766174, 0.08255147933959961, -0.004034578800201416, 0.003488481044769287, 9.906518936157227, -0.48425793647766113, 0.41981273889541626, -4.285197734832764, 1.769124150276184, -0.06322874128818512, -0.9892578125, -0.28369140625, -0.0888671875, 0, 
238, 3883217104, 0.12705428898334503, 0.6718921661376953, -0.14071331918239594, 0.7159739136695862, 0.9999999403953552, -0.00024292711168527603, 0.00011811405420303345, 0.0000336281955242157, 0.08251267671585083, -0.003720402717590332, 0.0032232999801635742, 9.901867866516113, -0.4468100368976593, 0.3876648545265198, -3.3406214714050293, 1.624249815940857, 0.4624394178390503, -0.9892578125, -0.28564453125, -0.08935546875, 0, 
239, 3883225437, 0.12706415355205536, 0.67182457447052, -0.14097392559051514, 0.7159842848777771, 1, -0.00018721260130405426, 0.00011518318206071854, 0.00003505777567625046, 0.0822569727897644, -0.003269016742706299, 0.0033602118492126465, 9.871158599853516, -0.39280450344085693, 0.4045211970806122, -2.574460983276367, 1.583945870399475, 0.4820983409881592, -0.9853515625, -0.28076171875, -0.091064453125, 0, 
240, 3883233770, 0.1271604299545288, 0.6717785596847534, -0.14113010466098785, 0.7159796357154846, 1, -0.00017701927572488785, 0.00005585514008998871, 0.000010268762707710266, 0.08219754695892334, -0.0026630759239196777, 0.003414928913116455, 9.864076614379883, -0.31973183155059814, 0.41023412346839905, -2.4342873096466064, 0.7680941224098206, 0.14121128618717194, -0.99267578125, -0.286376953125, -0.09228515625, 0, 
241, 3883242103, 0.1272045373916626, 0.6718373894691467, -0.14132127165794373, 0.7158789038658142, 1, -0.0001601511612534523, -0.00003525707870721817, -0.00006721634417772293, 0.08292675018310547, -0.002012312412261963, 0.0032072067260742188, 9.95163631439209, -0.24091088771820068, 0.38451066613197327, -2.202324628829956, -0.4848390221595764, -0.9243280291557312, -0.9892578125, -0.28515625, -0.091552734375, 0, 
242, 3883250436, 0.12739598751068115, 0.6719210147857666, -0.14140838384628296, 0.715749204158783, 0.9999999403953552, -0.00019263383001089096, -0.00009847525507211685, -0.00013884622603654861, 0.08324819803237915, -0.0020294785499572754, 0.0031653642654418945, 9.990246772766113, -0.24236223101615906, 0.378929078578949, -2.6490116119384766, -1.3541861772537231, -1.9093493223190308, -0.98681640625, -0.2861328125, -0.091552734375, 0, 
243, 3883258769, 0.12754887342453003, 0.6720576882362366, -0.14161156117916107, 0.7155534625053406, 0.9999999403953552, -0.0002454761415719986, -0.00013976357877254486, -0.00015776976943016052, 0.08232611417770386, -0.0020911693572998047, 0.0031946301460266113, 9.879633903503418, -0.2492823749780655, 0.38172855973243713, -3.3756747245788574, -1.9219642877578735, -2.16957688331604, -0.9912109375, -0.2861328125, -0.0908203125, 0, 
244, 3883267102, 0.1278504878282547, 0.6722204089164734, -0.14180466532707214, 0.7153085470199585, 0.9999998807907104, -0.00034868158400058746, -0.00023007765412330627, -0.00017252005636692047, 0.08093935251235962, -0.002311527729034424, 0.003804147243499756, 9.713264465332031, -0.27584517002105713, 0.4541352093219757, -4.79490852355957, -3.163922071456909, -2.3724162578582764, -0.98779296875, -0.28173828125, -0.089599609375, 0, 
245, 3883275435, 0.1281055212020874, 0.6724700331687927, -0.14214792847633362, 0.7149600982666016, 0.9999998211860657, -0.00042198505252599716, -0.00032550375908613205, -0.00016960036009550095, 0.08062630891799927, -0.0027689337730407715, 0.0018008947372436523, 9.675663948059082, -0.3308085799217224, 0.2129816859960556, -5.802943706512451, -4.476177215576172, -2.332265853881836, -0.99072265625, -0.28369140625, -0.08837890625, 0, 
246, 3883283768, 0.12843555212020874, 0.6726925373077393, -0.14240829646587372, 0.7146395444869995, 0.9999998211860657, -0.00041893403977155685, -0.0003279438242316246, -0.00016605574637651443, 0.08000636100769043, -0.0023160576820373535, -0.0004132390022277832, 9.601175308227539, -0.2763882875442505, -0.05272318050265312, -5.760988235473633, -4.509732246398926, -2.283522129058838, -0.99072265625, -0.28271484375, -0.0888671875, 0, 
247, 3883292101, 0.12865827977657318, 0.6729190945625305, -0.14275246858596802, 0.7143175005912781, 0.9999998807907104, -0.00040023308247327805, -0.0002946173772215843, -0.00013724248856306076, 0.07954072952270508, -0.001332700252532959, -0.0007484555244445801, 9.54526424407959, -0.15857206284999847, -0.09272031486034393, -5.503820419311523, -4.0514421463012695, -1.8872950077056885, -0.98876953125, -0.28369140625, -0.090087890625, 0, 
248, 3883300434, 0.12900106608867645, 0.6731120347976685, -0.1430528163909912, 0.7140138149261475, 0.9999998211860657, -0.0004574572667479515, -0.00029835570603609085, -0.00014224927872419357, 0.07948511838912964, -0.00027304887771606445, -0.0002231597900390625, 9.538591384887695, -0.031357478350400925, -0.029724448919296265, -6.290741920471191, -4.102850437164307, -1.9561465978622437, -0.98876953125, -0.28466796875, -0.089599609375, 0, 
249, 3883308767, 0.12936054170131683, 0.6733503341674805, -0.14355620741844177, 0.7136229276657104, 0.9999997615814209, -0.0006145834922790527, -0.0003452301025390625, -0.0001352597028017044, 0.0796893835067749, 0.0005364418029785156, 0.001863241195678711, 9.563175201416016, 0.06551318615674973, 0.22039037942886353, -8.451468467712402, -4.747445106506348, -1.8600289821624756, -0.9892578125, -0.28759765625, -0.08837890625, 0, 
250, 3883317100, 0.12990915775299072, 0.6735954880714417, -0.14415283501148224, 0.7131716012954712, 0.9999995827674866, -0.0008220411837100983, -0.0004434064030647278, -0.00011641159653663635, 0.07989579439163208, 0.0014756321907043457, 0.003375709056854248, 9.588038444519043, 0.17787431180477142, 0.40095794200897217, -11.30433177947998, -6.097520351409912, -1.6008386611938477, -0.98828125, -0.28857421875, -0.08447265625, 0, 
251, 3883325433, 0.1304522305727005, 0.6739263534545898, -0.14497822523117065, 0.7125921845436096, 0.9999993443489075, -0.000983256846666336, -0.0005503352731466293, -0.00008206814527511597, 0.0802774429321289, 0.001492917537689209, 0.0036960244178771973, 9.63390827178955, 0.17951489984989166, 0.438394695520401, -13.521296501159668, -7.567957401275635, -1.128563404083252, -0.98583984375, -0.28369140625, -0.089599609375, 0, 
252, 3883333766, 0.13112235069274902, 0.6742286682128906, -0.14580678939819336, 0.7120139598846436, 0.9999992251396179, -0.001080172136425972, -0.0005819480866193771, -0.00007176585495471954, 0.08021211624145508, 0.0005899667739868164, 0.00269240140914917, 9.626021385192871, 0.07114481180906296, 0.31754177808761597, -14.85403060913086, -8.002681732177734, -0.986890971660614, -0.98876953125, -0.2861328125, -0.08740234375, 0, 
253, 3883342099, 0.1318056583404541, 0.6744851469993591, -0.14665670692920685, 0.7114700675010681, 0.9999992847442627, -0.0011003920808434486, -0.0004565911367535591, -0.00014362391084432602, 0.07963436841964722, -0.001337587833404541, 0.0011596083641052246, 9.556591987609863, -0.1593037247657776, 0.13464882969856262, -15.132085800170898, -6.278831958770752, -1.9750502109527588, -0.990234375, -0.2861328125, -0.0869140625, 0, 
254, 3883350432, 0.13267268240451813, 0.6745743751525879, -0.1472892314195633, 0.7110936045646667, 0.9999993443489075, -0.0010718423873186111, -0.00023913010954856873, -0.0002864804118871689, 0.07946866750717163, -0.0029777884483337402, 0.0004501938819885254, 9.536735534667969, -0.35468754172325134, 0.05137646570801735, -14.739483833312988, -3.288407325744629, -3.939546823501587, -0.98828125, -0.28857421875, -0.0888671875, 0, 
255, 3883358765, 0.13358044624328613, 0.6745541095733643, -0.1477881669998169, 0.7108391523361206, 0.9999994039535522, -0.000996571034193039, 0.00001631956547498703, -0.0004568081349134445, 0.08030647039413452, -0.0041468143463134766, 0.001306772232055664, 9.637383460998535, -0.4934267997741699, 0.156484454870224, -13.704385757446289, 0.22441916167736053, -6.281815052032471, -0.98583984375, -0.28564453125, -0.091064453125, 0, 
256, 3883367098, 0.13462980091571808, 0.6743658185005188, -0.1480349898338318, 0.7107685208320618, 0.9999994039535522, -0.0009124958887696266, 0.00024313852190971375, -0.0005947472527623177, 0.08219236135482788, -0.005037784576416016, 0.0018786787986755371, 9.863780975341797, -0.5988700985908508, 0.22730794548988342, -12.548223495483398, 3.343529224395752, -8.178690910339355, -0.98583984375, -0.28759765625, -0.090087890625, 0, 
257, 3883375431, 0.13559971749782562, 0.6741045713424683, -0.14820554852485657, 0.7107964158058167, 0.9999994039535522, -0.0007955664768815041, 0.0004339665174484253, -0.0006484845653176308, 0.08474409580230713, -0.005187630653381348, 0.0027335286140441895, 10.169960021972656, -0.6161571145057678, 0.3319876492023468, -10.940263748168945, 5.967707633972168, -8.917661666870117, -0.986328125, -0.2900390625, -0.090576171875, 0, 
258, 3883383764, 0.13652350008487701, 0.6737188696861267, -0.1482427567243576, 0.7109775543212891, 0.999999463558197, -0.0006681960076093674, 0.0005631251260638237, -0.0005836896598339081, 0.08646494150161743, -0.004457294940948486, 0.0035016536712646484, 10.37628173828125, -0.5291305184364319, 0.4256940484046936, -9.188722610473633, 7.743837833404541, -8.026631355285645, -0.984375, -0.2890625, -0.090576171875, 0, 
259, 3883392097, 0.13718242943286896, 0.6733213067054749, -0.1483534425497055, 0.7112042307853699, 0.9999995827674866, -0.0005324501544237137, 0.0006282581016421318, -0.0004219990223646164, 0.08769065141677856, -0.0034512877464294434, 0.003596007823944092, 10.523199081420898, -0.4099222421646118, 0.43798938393592834, -7.322010040283203, 8.639516830444336, -5.803136348724365, -0.98828125, -0.29150390625, -0.096435546875, 0, 
260, 3883400430, 0.13765744864940643, 0.6728717684745789, -0.14843177795410156, 0.7115215063095093, 0.9999997019767761, -0.0003838576376438141, 0.0006284201517701149, -0.00020903348922729492, 0.08824735879898071, -0.0029128193855285645, 0.003124237060546875, 10.589941024780273, -0.3474476933479309, 0.38155683875083923, -5.278634071350098, 8.641745567321777, -2.8745322227478027, -0.986328125, -0.29638671875, -0.091552734375, 0, 
261, 3883408763, 0.13779699802398682, 0.6724897027015686, -0.14861178398132324, 0.7118180394172668, 0.9999998211860657, -0.0002195378765463829, 0.0005775038152933121, 0.0000011380761861801147, 0.088947594165802, -0.0032004714012145996, 0.0025709867477416992, 10.673955917358398, -0.3841535747051239, 0.3147018849849701, -3.0189831256866455, 7.941565036773682, 0.015650296583771706, -0.986572265625, -0.291015625, -0.096923828125, 0, 
262, 3883417096, 0.1377577781677246, 0.6720907688140869, -0.14872445166110992, 0.7121789455413818, 0.9999998211860657, -0.00004868116229772568, 0.000541098415851593, 0.00017831288278102875, 0.08935487270355225, -0.003927886486053467, 0.0017858147621154785, 10.722813606262207, -0.47329285740852356, 0.22010104358196259, -0.6694408655166626, 7.4409356117248535, 2.4520764350891113, -0.9892578125, -0.293212890625, -0.096435546875, 0, 
263, 3883425429, 0.1374836415052414, 0.6717673540115356, -0.14889658987522125, 0.7125009894371033, 0.9999998211860657, 0.00007620919495820999, 0.000493326224386692, 0.00028568413108587265, 0.08920323848724365, -0.0047269463539123535, 0.0014481544494628906, 10.704570770263672, -0.5702738761901855, 0.1790619194507599, 1.047993779182434, 6.783994674682617, 3.9285967350006104, -0.988037109375, -0.2900390625, -0.098876953125, 0, 
264, 3883433762, 0.13714303076267242, 0.6714832186698914, -0.14897949993610382, 0.7128170132637024, 0.9999998211860657, 0.0001841941848397255, 0.0003887144848704338, 0.00034957099705934525, 0.08900749683380127, -0.005182027816772461, 0.001275479793548584, 10.681057929992676, -0.6254627704620361, 0.15720249712467194, 2.5329535007476807, 5.345422744750977, 4.8071393966674805, -0.983642578125, -0.28955078125, -0.096923828125, 0, 
265, 3883442095, 0.1366608589887619, 0.6713320016860962, -0.14908401668071747, 0.7130301594734192, 0.9999998807907104, 0.00027172360569238663, 0.0002785502001643181, 0.00034727249294519424, 0.08932322263717651, -0.005202293395996094, 0.000792086124420166, 10.718974113464355, -0.6279449462890625, 0.09816563874483109, 3.7366180419921875, 3.830493927001953, 4.775530815124512, -0.990478515625, -0.289794921875, -0.097900390625, 0, 
266, 3883450428, 0.1362627148628235, 0.6711923480033875, -0.14910416305065155, 0.7132336497306824, 0.9999998807907104, 0.00027056410908699036, 0.00021050311625003815, 0.00031130947172641754, 0.08769893646240234, -0.005048930644989014, 0.0009739995002746582, 10.524085998535156, -0.6090522408485413, 0.11919986456632614, 3.720672607421875, 2.8947412967681885, 4.280983924865723, -0.988525390625, -0.288330078125, -0.101318359375, 0, 
267, 3883458761, 0.13588537275791168, 0.6711376905441284, -0.14921370148658752, 0.7133341431617737, 0.9999999403953552, 0.00019446201622486115, 0.00015234015882015228, 0.0002446230500936508, 0.08529490232467651, -0.004631340503692627, 0.0009650588035583496, 10.235645294189453, -0.5582306385040283, 0.11745596677064896, 2.674152135848999, 2.094911575317383, 3.363943338394165, -0.988525390625, -0.2890625, -0.099853515625, 0, 
268, 3883467094, 0.13569380342960358, 0.6710417866706848, -0.14928586781024933, 0.7134457230567932, 1, 0.00008721090853214264, 0.00014165788888931274, 0.0001794770359992981, 0.08248871564865112, -0.0038793087005615234, 0.0016284584999084473, 9.898930549621582, -0.4672869145870209, 0.19685910642147064, 1.1992840766906738, 1.9480139017105103, 2.468085527420044, -0.987060546875, -0.287109375, -0.096923828125, 0, 
269, 3883475427, 0.13554397225379944, 0.6709767580032349, -0.14948314428329468, 0.7134937644004822, 1, -0.000029860995709896088, 0.00014993734657764435, 0.00013461895287036896, 0.0792773962020874, -0.0027779340744018555, 0.0021249055862426758, 9.513607025146484, -0.3342907130718231, 0.25601619482040405, -0.4106346368789673, 2.0618691444396973, 1.8512177467346191, -0.989990234375, -0.290283203125, -0.101318359375, 0, 
270, 3883483760, 0.13556641340255737, 0.6708690524101257, -0.149648979306221, 0.7135561108589172, 1, -0.00013211742043495178, 0.000136631540954113, 0.00008461903780698776, 0.07721811532974243, -0.0010457038879394531, 0.002586841583251953, 9.26650619506836, -0.12605741620063782, 0.3112938702106476, -1.8168175220489502, 1.8788939714431763, 1.1636419296264648, -0.985595703125, -0.28759765625, -0.099853515625, 0, 
271, 3883492093, 0.1356479525566101, 0.6708102226257324, -0.14991700649261475, 0.713539719581604, 0.9999999403953552, -0.00024446845054626465, 0.0001291939988732338, 0.000008062459528446198, 0.07650554180145264, 0.0003237128257751465, 0.0032252073287963867, 9.180974006652832, 0.038649655878543854, 0.38843727111816406, -3.3618171215057373, 1.776616096496582, 0.11087121069431305, -0.987060546875, -0.28662109375, -0.097412109375, 0, 
272, 3883500426, 0.13593821227550507, 0.6707108616828918, -0.15016403794288635, 0.7135258913040161, 0.9999999403953552, -0.000379941426217556, 0.00010904669761657715, -0.00006382819265127182, 0.07601004838943481, 0.0007052421569824219, 0.003956615924835205, 9.1215181350708, 0.08500557392835617, 0.47576743364334106, -5.224778652191162, 1.499559760093689, -0.8777358531951904, -0.986572265625, -0.29150390625, -0.098388671875, 0, 
273, 3883508759, 0.13629113137722015, 0.6706686615943909, -0.15050719678401947, 0.7134260535240173, 0.9999998807907104, -0.0004906635731458664, 0.00009231548756361008, -0.00014542043209075928, 0.0756603479385376, 0.0006437897682189941, 0.0037012696266174316, 9.079551696777344, 0.07835125178098679, 0.44503915309906006, -6.747379302978516, 1.2694799900054932, -1.999754786491394, -0.987548828125, -0.28466796875, -0.097412109375, 0, 
274, 3883517092, 0.13682352006435394, 0.6705917119979858, -0.15079346299171448, 0.7133359909057617, 0.9999998211860657, -0.0005787201225757599, 0.00007332395762205124, -0.00022410042583942413, 0.07547110319137573, 0.0007036328315734863, 0.004560708999633789, 9.056833267211914, 0.0861385390162468, 0.5480145812034607, -7.958292484283447, 1.008317232131958, -3.081725597381592, -0.989501953125, -0.290283203125, -0.101318359375, 0, 
275, 3883525425, 0.13743920624256134, 0.670555591583252, -0.1511951982975006, 0.7131665349006653, 0.9999997019767761, -0.0007185982540249825, 0.00007192045450210571, -0.0002990933135151863, 0.07460886240005493, -0.0004252791404724121, 0.004840672016143799, 8.95339298248291, -0.04872036725282669, 0.581526517868042, -9.881832122802734, 0.9890169501304626, -4.112993240356445, -0.991943359375, -0.288330078125, -0.099853515625, 0, 
276, 3883533758, 0.1382291167974472, 0.6704835295677185, -0.15160582959651947, 0.7129943370819092, 0.9999995827674866, -0.0008518947288393974, 0.000036908313632011414, -0.00033656228333711624, 0.07327455282211304, -0.0024469494819641113, 0.0055806636810302734, 8.793371200561523, -0.29127347469329834, 0.6697806119918823, -11.714864730834961, 0.5075461268424988, -4.628249168395996, -0.989501953125, -0.291748046875, -0.101318359375, 0, 
277, 3883542091, 0.13904385268688202, 0.6705151200294495, -0.1522030234336853, 0.712678849697113, 0.999999463558197, -0.001004270277917385, -0.00007272791117429733, -0.0003362605348229408, 0.07321345806121826, -0.004311740398406982, 0.005767941474914551, 8.7861909866333, -0.5151586532592773, 0.691017210483551, -13.810261726379395, -1.000120759010315, -4.6240997314453125, -0.987060546875, -0.287109375, -0.105224609375, 0, 
278, 3883550424, 0.1399240791797638, 0.6705200672149658, -0.15292420983314514, 0.7123473882675171, 0.9999992847442627, -0.001147373579442501, -0.00015368591994047165, -0.0002266010269522667, 0.07584470510482788, -0.005659580230712891, 0.0070874691009521484, 9.102012634277344, -0.6780819892883301, 0.8483380079269409, -15.778153419494629, -2.113417863845825, -3.1161131858825684, -0.988037109375, -0.288818359375, -0.102294921875, 0, 
279, 3883558757, 0.14069892466068268, 0.6705717444419861, -0.15381470322608948, 0.7119544148445129, 0.9999992847442627, -0.001195596531033516, -0.00018876045942306519, -0.00012524984776973724, 0.07655280828475952, -0.005712032318115234, 0.006353557109832764, 9.186935424804688, -0.685229480266571, 0.7598876953125, -16.441293716430664, -2.5957469940185547, -1.7223783731460571, -0.989501953125, -0.291748046875, -0.103759765625, 0, 
280, 3883567090, 0.14146970212459564, 0.6706117391586304, -0.15465892851352692, 0.7115809917449951, 0.9999992847442627, -0.0011631324887275696, -0.00024027563631534576, -0.00007749535143375397, 0.07733035087585449, -0.005125224590301514, 0.00389176607131958, 9.280173301696777, -0.6148728132247925, 0.4640565812587738, -15.994863510131836, -3.3041603565216064, -1.0656805038452148, -0.988525390625, -0.287353515625, -0.102294921875, 0, 
