PacketCounter,SampleTimeFine,Quat_W,Quat_X,Quat_Y,Quat_Z,dq_W,dq_X,dq_Y,dq_Z,dv[1],dv[2],dv[3],Acc_X,Acc_Y,Acc_Z,Gyr_X,Gyr_Y,Gyr_Z,Mag_X,Mag_Y,Mag_Z,Status,
0, 2926928585, 0.16465960443019867, -0.5357162952423096, -0.14345842599868774, -0.8156684637069702, 0, 0, 0, 0, 0, 0, 0, 0, 0, 0, 0, 0, 0, -0.986083984375, -0.28955078125, -0.279052734375, 0, 
1, 2926936918, 0.16443488001823425, -0.5357277989387512, -0.1433543860912323, -0.8157244920730591, 0.9999999403953552, -0.00021519511938095093, 0.000005603767931461334, -0.00013527274131774902, 0.07588797807693481, 0.004606306552886963, 0.031706392765045166, 9.106832504272461, 0.553159773349762, 3.8050758838653564, -2.959263324737549, 0.07706042379140854, -1.86020827293396, -0.985595703125, -0.291015625, -0.281005859375, 0, 
2, 2926945251, 0.16418510675430298, -0.535734236240387, -0.14323392510414124, -0.8157917857170105, 0.9999999403953552, -0.00024285726249217987, 0.00001478102058172226, -0.00014932826161384583, 0.0755200982093811, 0.004567444324493408, 0.031434595584869385, 9.062623023986816, 0.5485948324203491, 3.772594690322876, -3.33966064453125, 0.20326176285743713, -2.0534932613372803, -0.98193359375, -0.291259765625, -0.278076171875, 0, 
3, 2926953584, 0.1639907956123352, -0.5358067750930786, -0.1429179459810257, -0.815838634967804, 0.9999999403953552, -0.0002576541155576706, 0.00003587920218706131, -0.00015693530440330505, 0.07533484697341919, 0.004468083381652832, 0.03127104043960571, 9.04033088684082, 0.5366291403770447, 3.753122091293335, -3.543140172958374, 0.4933941960334778, -2.1581015586853027, -0.985107421875, -0.28955078125, -0.280517578125, 0, 
4, 2926961917, 0.16371159255504608, -0.5357886552810669, -0.14278410375118256, -0.8159300684928894, 0.9999999403953552, -0.00026886723935604095, 0.00004578661173582077, -0.0001737307757139206, 0.07522445917129517, 0.004413723945617676, 0.03153800964355469, 9.026992797851562, 0.5302957892417908, 3.785346031188965, -3.697338104248047, 0.6296363472938538, -2.3890655040740967, -0.986083984375, -0.2900390625, -0.280029296875, 0, 
5, 2926970250, 0.163606658577919, -0.535957932472229, -0.14249716699123383, -0.8158902525901794, 0.9999999403953552, -0.0002891421318054199, 0.000055762939155101776, -0.00016251206398010254, 0.07502156496047974, 0.004484236240386963, 0.031333982944488525, 9.002633094787598, 0.5385258793830872, 3.7609212398529053, -3.976149082183838, 0.7668262124061584, -2.2347910404205322, -0.98291015625, -0.28955078125, -0.276611328125, 0, 
6, 2926978583, 0.1633126586675644, -0.5359370708465576, -0.14233773946762085, -0.8159906268119812, 0.9999999403953552, -0.0002985578030347824, 0.00005493964999914169, -0.00017383508384227753, 0.07474207878112793, 0.004443526268005371, 0.031497299671173096, 8.969115257263184, 0.5336639285087585, 3.7804620265960693, -4.1056294441223145, 0.7555046677589417, -2.3904998302459717, -0.9853515625, -0.29296875, -0.278564453125, 0, 
7, 2926986916, 0.16338327527046204, -0.5359687209129333, -0.14209143817424774, -0.8159984946250916, 0.9999999403953552, -0.0003105774521827698, 0.0000375090166926384, -0.00016850978136062622, 0.07484394311904907, 0.004373371601104736, 0.031828343868255615, 8.981412887573242, 0.5251345038414001, 3.82002592086792, -4.2709174156188965, 0.5158066749572754, -2.3172683715820312, -0.986328125, -0.2939453125, -0.278564453125, 0, 
8, 2926995249, 0.16307790577411652, -0.5359864234924316, -0.14192740619182587, -0.8160764575004578, 0.9999999403953552, -0.0003114938735961914, 0.000010692514479160309, -0.00017143413424491882, 0.0748099684715271, 0.004257261753082275, 0.03171396255493164, 8.977433204650879, 0.5112249255180359, 3.806067705154419, -4.283519744873047, 0.147038534283638, -2.357483148574829, -0.985595703125, -0.28955078125, -0.280517578125, 0, 
9, 2927003582, 0.1629737764596939, -0.5358782410621643, -0.14157423377037048, -0.8162298202514648, 0.9999999403953552, -0.0003204159438610077, -1.862645149230957e-8, -0.00018338672816753387, 0.07502228021621704, 0.004021108150482178, 0.03145754337310791, 9.002936363220215, 0.4830348789691925, 3.7752249240875244, -4.406212329864502, -0.000256142346188426, -2.5218493938446045, -0.984375, -0.291015625, -0.277587890625, 0, 
10, 2927011915, 0.16264872252941132, -0.5359095931053162, -0.14139822125434875, -0.8163045644760132, 0.9999999403953552, -0.00033352524042129517, -0.0000029150396585464478, -0.0001787487417459488, 0.07509785890579224, 0.003815591335296631, 0.031382620334625244, 9.012029647827148, 0.4582584500312805, 3.7661964893341064, -4.586485385894775, -0.0400862842798233, -2.4580702781677246, -0.981201171875, -0.290771484375, -0.280029296875, 0, 
11, 2927020248, 0.16272307932376862, -0.5358134508132935, -0.1410921812057495, -0.8164055943489075, 0.9999999403953552, -0.00033399276435375214, -0.000008387491106987, -0.0001824609935283661, 0.07523536682128906, 0.003486156463623047, 0.03141301870346069, 9.028558731079102, 0.4187547564506531, 3.7697784900665283, -4.59291410446167, -0.11534091085195541, -2.5091192722320557, -0.984130859375, -0.29150390625, -0.281005859375, 0, 
12, 2927028581, 0.16240237653255463, -0.5358362197875977, -0.14093418419361115, -0.8164817690849304, 0.9999999403953552, -0.00031518004834651947, 0.000002752058207988739, -0.00018635205924510956, 0.07555443048477173, 0.0036317110061645508, 0.03135412931442261, 9.066811561584473, 0.4362705945968628, 3.7627899646759033, -4.334210395812988, 0.03784503415226936, -2.5626275539398193, -0.982177734375, -0.2900390625, -0.283447265625, 0, 
13, 2927036914, 0.16236060857772827, -0.5358737111091614, -0.14044621586799622, -0.8165498375892639, 0.9999999403953552, -0.0003025569021701813, 0.000007909722626209259, -0.00018656998872756958, 0.07530969381332397, 0.003457486629486084, 0.03115689754486084, 9.037423133850098, 0.415438175201416, 3.7391629219055176, -4.160623073577881, 0.10877084732055664, -2.565624237060547, -0.982666015625, -0.28955078125, -0.283447265625, 0, 
14, 2927045247, 0.1620645672082901, -0.5358781218528748, -0.1403067708015442, -0.8166297078132629, 0.9999999403953552, -0.00028434768319129944, 0.000020201317965984344, -0.000179363414645195, 0.07551997900009155, 0.0037707090377807617, 0.03142225742340088, 9.062594413757324, 0.4530846178531647, 3.771149158477783, -3.910217523574829, 0.27779915928840637, -2.466522693634033, -0.986572265625, -0.29150390625, -0.281005859375, 0, 
15, 2927053580, 0.1619826853275299, -0.5360028743743896, -0.13976998627185822, -0.8166559338569641, 0.9999999403953552, -0.0002693645656108856, 0.00003209803253412247, -0.00016511790454387665, 0.07522791624069214, 0.003687620162963867, 0.03133505582809448, 9.027538299560547, 0.4429556131362915, 3.7607195377349854, -3.704176902770996, 0.4413973093032837, -2.270624876022339, -0.981689453125, -0.29296875, -0.281005859375, 0, 
16, 2927061913, 0.16171470284461975, -0.5359947681427002, -0.1396428793668747, -0.816736102104187, 0.9999999403953552, -0.0002573225647211075, 0.00003272760659456253, -0.00016487762331962585, 0.07510370016098022, 0.0034789443016052246, 0.03158384561538696, 9.012621879577637, 0.41797319054603577, 3.7905938625335693, -3.538581132888794, 0.45005494356155396, -2.2673211097717285, -0.987548828125, -0.291015625, -0.279541015625, 0, 
17, 2927070246, 0.16163760423660278, -0.5361097455024719, -0.13916994631290436, -0.8167566657066345, 0.9999999403953552, -0.0002475995570421219, 0.00004781316965818405, -0.0001484658569097519, 0.07481062412261963, 0.0034868717193603516, 0.031483590602874756, 8.97737979888916, 0.41885629296302795, 3.778738021850586, -3.404874563217163, 0.6575046181678772, -2.0416338443756104, -0.983154296875, -0.2939453125, -0.281005859375, 0, 
18, 2927078579, 0.1613817811012268, -0.5360960364341736, -0.1390567570924759, -0.8168356418609619, 0.9999999403953552, -0.00023837946355342865, 0.000036236830055713654, -0.00016294978559017181, 0.07480698823928833, 0.00344926118850708, 0.031339406967163086, 8.976981163024902, 0.4145257771015167, 3.761326551437378, -3.2780840396881104, 0.4983120858669281, -2.2408101558685303, -0.982666015625, -0.29150390625, -0.281982421875, 0, 
19, 2927086912, 0.16130943596363068, -0.5361936092376709, -0.138621523976326, -0.8168597221374512, 0.9999999403953552, -0.00023488514125347137, 0.000024036504328250885, -0.0001535993069410324, 0.07503175735473633, 0.0035833120346069336, 0.03125643730163574, 9.003994941711426, 0.4305802583694458, 3.751279592514038, -3.230031728744507, 0.33053886890411377, -2.112226963043213, -0.985595703125, -0.29150390625, -0.284423828125, 0, 
20, 2927095245, 0.16104817390441895, -0.5361870527267456, -0.13851356506347656, -0.8169339299201965, 0.9999999403953552, -0.00023751147091388702, 0.000026377849280834198, -0.0001683700829744339, 0.07513636350631714, 0.003497183322906494, 0.03158116340637207, 9.016546249389648, 0.42032521963119507, 3.7902443408966064, -3.2661478519439697, 0.36273595690727234, -2.31534743309021, -0.983154296875, -0.28955078125, -0.283447265625, 0, 
21, 2927103578, 0.1609055995941162, -0.5362765192985535, -0.13809552788734436, -0.8169741630554199, 0.9999999403953552, -0.00023801438510417938, 0.00003440584987401962, -0.00017547421157360077, 0.07536214590072632, 0.003556370735168457, 0.03146547079086304, 9.043612480163574, 0.42747578024864197, 3.776423215866089, -3.2730636596679688, 0.4731333553791046, -2.4130401611328125, -0.987060546875, -0.294921875, -0.281494140625, 0, 
22, 2927111911, 0.1606300324201584, -0.5362612009048462, -0.13798978924751282, -0.8170562386512756, 0.9999999403953552, -0.00024302303791046143, 0.0000353911891579628, -0.0001836959272623062, 0.07563203573226929, 0.0037377476692199707, 0.031474769115448, 9.076001167297363, 0.4492599070072174, 3.777531623840332, -3.3419406414031982, 0.48668330907821655, -2.526101589202881, -0.984619140625, -0.29443359375, -0.282958984375, 0, 
23, 2927120244, 0.16055205464363098, -0.5363126397132874, -0.1376633495092392, -0.8170928359031677, 0.9999999403953552, -0.00023484788835048676, 0.00004796404391527176, -0.0001867096871137619, 0.07594698667526245, 0.0039809346199035645, 0.03154611587524414, 9.113739967346191, 0.4785182774066925, 3.786217212677002, -3.2295193672180176, 0.659579336643219, -2.5675454139709473, -0.981201171875, -0.29296875, -0.282958984375, 0, 
24, 2927128577, 0.16029201447963715, -0.5362940430641174, -0.13757836818695068, -0.8171703219413757, 0.9999999403953552, -0.0002165529876947403, 0.00003453623503446579, -0.00018190406262874603, 0.07598859071731567, 0.003964722156524658, 0.031524479389190674, 9.118756294250488, 0.47671031951904297, 3.7835488319396973, -2.9779365062713623, 0.47492632269859314, -2.5014607906341553, -0.981201171875, -0.29541015625, -0.284912109375, 0, 
25, 2927136910, 0.1600767821073532, -0.5363720059394836, -0.1372285634279251, -0.8172202706336975, 0.9999999403953552, -0.00020954757928848267, 0.000039760954678058624, -0.00017459318041801453, 0.07586252689361572, 0.00397336483001709, 0.03183645009994507, 9.10359001159668, 0.47775086760520935, 3.821070432662964, -2.881601333618164, 0.5467742681503296, -2.4009246826171875, -0.984619140625, -0.294921875, -0.285888671875, 0, 
26, 2927145243, 0.15983998775482178, -0.5363500118255615, -0.13714902102947235, -0.8172944188117981, 0.9999999403953552, -0.00019869767129421234, 0.00003795977681875229, -0.00016577914357185364, 0.07552444934844971, 0.003832399845123291, 0.03173476457595825, 9.063102722167969, 0.46055611968040466, 3.8087034225463867, -2.732398748397827, 0.5220053195953369, -2.2797183990478516, -0.983154296875, -0.29296875, -0.284912109375, 0, 
27, 2927153576, 0.15956898033618927, -0.5364218354225159, -0.13678881525993347, -0.817360520362854, 0.9999999403953552, -0.00019830092787742615, 0.00005272123962640762, -0.00014659389853477478, 0.07534104585647583, 0.003476083278656006, 0.03179740905761719, 9.041040420532227, 0.4176795780658722, 3.816365957260132, -2.726943016052246, 0.7249982357025146, -2.0158917903900146, -0.980712890625, -0.2958984375, -0.282470703125, 0, 
28, 2927161909, 0.15936064720153809, -0.5363900661468506, -0.13670217990875244, -0.8174365758895874, 1, -0.00018781237304210663, 0.00005212891846895218, -0.00014039315283298492, 0.07495647668838501, 0.0033606886863708496, 0.03174334764480591, 8.994873046875, 0.403864324092865, 3.8099167346954346, -2.5827090740203857, 0.7168527245521545, -1.9306217432022095, -0.983642578125, -0.29345703125, -0.283447265625, 0, 
29, 2927170242, 0.15919002890586853, -0.5364333391189575, -0.13641475141048431, -0.8174893856048584, 1, -0.0001692250370979309, 0.00005209539085626602, -0.0001240503042936325, 0.07461857795715332, 0.0031511783599853516, 0.03185540437698364, 8.954273223876953, 0.37874794006347656, 3.8234779834747314, -2.3271045684814453, 0.7163916826248169, -1.7058823108673096, -0.980224609375, -0.29296875, -0.283935546875, 0, 
30, 2927178575, 0.1590159833431244, -0.5364050269126892, -0.13634580373764038, -0.8175533413887024, 1, -0.00015393458306789398, 0.000044745393097400665, -0.00011944770812988281, 0.07455158233642578, 0.0033922791481018066, 0.031547367572784424, 8.94638442993164, 0.40745216608047485, 3.786180257797241, -2.1168372631073, 0.6153180003166199, -1.6425896883010864, -0.983154296875, -0.29443359375, -0.282958984375, 0, 
31, 2927186908, 0.15888477861881256, -0.5364366173744202, -0.13607153296470642, -0.8176040053367615, 1, -0.00015094131231307983, 0.000040850602090358734, -0.00010779500007629395, 0.07465213537216187, 0.003628373146057129, 0.03168100118637085, 8.958446502685547, 0.43574613332748413, 3.8022286891937256, -2.0756752490997314, 0.5617586374282837, -1.482347011566162, -0.983642578125, -0.29443359375, -0.283447265625, 0, 
32, 2927195241, 0.15870489180088043, -0.5364282727241516, -0.13600346446037292, -0.8176557421684265, 1, -0.0001577381044626236, 0.00002100784331560135, -0.0001200065016746521, 0.07455629110336304, 0.003709733486175537, 0.031719863414764404, 8.947012901306152, 0.44554072618484497, 3.806729793548584, -2.1691415309906006, 0.28889012336730957, -1.6502739191055298, -0.979736328125, -0.2939453125, -0.286376953125, 0, 
33, 2927203574, 0.15855422616004944, -0.5364797115325928, -0.13574138283729553, -0.8176946043968201, 1, -0.0001675393432378769, 0.0000031655654311180115, -0.00011694617569446564, 0.07492005825042725, 0.0037181973457336426, 0.03192305564880371, 8.99071979522705, 0.44649383425712585, 3.830993413925171, -2.303924083709717, 0.0435313954949379, -1.6081898212432861, -0.979736328125, -0.2939453125, -0.283935546875, 0, 
34, 2927211907, 0.158355250954628, -0.536490797996521, -0.1356707662343979, -0.8177376389503479, 1, -0.00017203018069267273, -0.0000017527490854263306, -0.00013022497296333313, 0.07525521516799927, 0.0036670565605163574, 0.031970202922821045, 9.030921936035156, 0.44072508811950684, 3.8366544246673584, -2.3656795024871826, -0.02410299703478813, -1.7907936573028564, -0.984130859375, -0.29345703125, -0.283447265625, 0, 
35, 2927220240, 0.1581307351589203, -0.5365566611289978, -0.13540777564048767, -0.8177815079689026, 1, -0.00017415732145309448, -0.000024689361453056335, -0.00013972632586956024, 0.07542592287063599, 0.003340303897857666, 0.032057106494903564, 9.051518440246582, 0.40155503153800964, 3.846825122833252, -2.3949310779571533, -0.33951669931411743, -1.9214519262313843, -0.982666015625, -0.2939453125, -0.285888671875, 0, 
36, 2927228573, 0.15792420506477356, -0.5365971326828003, -0.13533814251422882, -0.8178064227104187, 1, -0.00017755292356014252, -0.000036597251892089844, -0.0001301802694797516, 0.07570236921310425, 0.0032463669776916504, 0.03206843137741089, 9.084754943847656, 0.3901771306991577, 3.848050117492676, -2.4416258335113525, -0.5032685399055481, -1.7901787757873535, -0.984130859375, -0.2939453125, -0.288818359375, 0, 
37, 2927236906, 0.15784552693367004, -0.5366469025611877, -0.13518130779266357, -0.8178149461746216, 1, -0.00016726180911064148, -0.000042576342821121216, -0.00013463757932186127, 0.07582998275756836, 0.0029204487800598145, 0.032058119773864746, 9.100106239318848, 0.3511914908885956, 3.8467187881469727, -2.300107002258301, -0.5854902267456055, -1.8514736890792847, -0.980712890625, -0.291015625, -0.283447265625, 0, 
38, 2927245239, 0.15765278041362762, -0.5366894006729126, -0.1351243555545807, -0.817833662033081, 1, -0.00015916675329208374, -0.00004178658127784729, -0.00012437254190444946, 0.07578521966934204, 0.0030412673950195312, 0.03179514408111572, 9.094669342041016, 0.36533358693122864, 3.8153443336486816, -2.1887876987457275, -0.5746297836303711, -1.7103136777877808, -0.983642578125, -0.2978515625, -0.283935546875, 0, 
39, 2927253572, 0.15792296826839447, -0.5366802215576172, -0.13517363369464874, -0.8177792429924011, 1, -0.00014670565724372864, -0.00003420189023017883, -0.00011129863560199738, 0.07598608732223511, 0.0030611157417297363, 0.031332433223724365, 9.118768692016602, 0.36774203181266785, 3.7598230838775635, -2.017428398132324, -0.47032853960990906, -1.5305273532867432, -0.981201171875, -0.29296875, -0.282470703125, 0, 
40, 2927261905, 0.15776027739048004, -0.5366901159286499, -0.1351235955953598, -0.8178125023841858, 1, -0.0001341402530670166, -0.000004330649971961975, -0.00011016987264156342, 0.07616961002349854, 0.0031284093856811523, 0.031527936458587646, 9.140693664550781, 0.37591788172721863, 3.7835142612457275, -1.844634771347046, -0.05955309420824051, -1.5150052309036255, -0.983154296875, -0.29638671875, -0.283935546875, 0, 
41, 2927270238, 0.15775766968727112, -0.5366853475570679, -0.1350034922361374, -0.8178359270095825, 1, -0.00010821782052516937, 0.00002474989742040634, -0.00011654570698738098, 0.07604557275772095, 0.0032579898834228516, 0.03148454427719116, 9.125673294067383, 0.3917275071144104, 3.7786049842834473, -1.4881614446640015, 0.34034913778305054, -1.6026827096939087, -0.985595703125, -0.2939453125, -0.282958984375, 0, 
42, 2927278571, 0.1576227843761444, -0.5366590023040771, -0.1349773406982422, -0.8178835511207581, 1, -0.00009599700570106506, 0.000033087097108364105, -0.00010751374065876007, 0.0759231448173523, 0.0031325221061706543, 0.03136414289474487, 9.110916137695312, 0.3767601251602173, 3.7643074989318848, -1.3201063871383667, 0.4549984335899353, -1.4784791469573975, -0.978271484375, -0.292724609375, -0.285888671875, 0, 
43, 2927286904, 0.15775366127490997, -0.5366151332855225, -0.13492809236049652, -0.817895233631134, 1, -0.00007809139788150787, 0.00006320234388113022, -0.00009063072502613068, 0.07573401927947998, 0.0033840537071228027, 0.031389474868774414, 9.087997436523438, 0.4069645404815674, 3.767874240875244, -1.0738767385482788, 0.8691293597221375, -1.2463117837905884, -0.984619140625, -0.29345703125, -0.282470703125, 0, 
44, 2927295237, 0.15766669809818268, -0.5365751385688782, -0.13490930199623108, -0.8179413676261902, 1, -0.00006191246211528778, 0.0000487184152007103, -0.00007395446300506592, 0.0757608413696289, 0.0032965540885925293, 0.03165715932846069, 9.09166431427002, 0.3956019878387451, 3.79901123046875, -0.8513914942741394, 0.6699531674385071, -1.0169875621795654, -0.980224609375, -0.29443359375, -0.284912109375, 0, 
45, 2927303570, 0.15798801183700562, -0.5365234017372131, -0.1349731683731079, -0.8179027438163757, 1, -0.000048821792006492615, 0.00005006138235330582, -0.0000560469925403595, 0.07551538944244385, 0.003149569034576416, 0.0315852165222168, 9.06220817565918, 0.3779633641242981, 3.790377378463745, -0.6713746786117554, 0.6884209513664246, -0.7707322835922241, -0.982177734375, -0.294921875, -0.282958984375, 0, 
46, 2927311903, 0.15795885026454926, -0.5364827513694763, -0.13494861125946045, -0.817939043045044, 1, -0.000034205615520477295, 0.00005267839878797531, -0.00002215057611465454, 0.07553046941757202, 0.002910435199737549, 0.03161865472793579, 9.064017295837402, 0.3492656350135803, 3.7943897247314453, -0.4703798294067383, 0.7244090437889099, -0.3046044707298279, -0.980712890625, -0.29443359375, -0.281982421875, 0, 
47, 2927320236, 0.15819847583770752, -0.5364699363708496, -0.1349024474620819, -0.8179087042808533, 1, -0.000030096620321273804, 0.000040075741708278656, 0.000012417323887348175, 0.07575780153274536, 0.002813577651977539, 0.03135043382644653, 9.091299057006836, 0.3376427888870239, 3.762202262878418, -0.4138748049736023, 0.5511030554771423, 0.17075729370117188, -0.982177734375, -0.29443359375, -0.286376953125, 0, 
48, 2927328569, 0.1582271009683609, -0.5364354848861694, -0.13486821949481964, -0.8179314136505127, 1, -0.000010274350643157959, 0.0000496571883559227, 0.00003327708691358566, 0.07580035924911499, 0.0028550028800964355, 0.03141874074935913, 9.096405982971191, 0.3426140248775482, 3.770399332046509, -0.14128810167312622, 0.6828626990318298, 0.4576111137866974, -0.978271484375, -0.296630859375, -0.283935546875, 0, 
49, 2927336902, 0.15828365087509155, -0.536453127861023, -0.13468293845653534, -0.8179394602775574, 1, 0.0000023460015654563904, 0.000050854869186878204, 0.0000415286049246788, 0.0756608247756958, 0.002819359302520752, 0.03130340576171875, 9.07966136932373, 0.33833661675453186, 3.756558656692505, 0.03226112946867943, 0.699332594871521, 0.5710821747779846, -0.980712890625, -0.2939453125, -0.282958984375, 0, 
50, 2927345235, 0.15833523869514465, -0.5364101529121399, -0.13467717170715332, -0.8179585933685303, 1, 0.000027251429855823517, 0.00005322415381669998, 0.00003621447831392288, 0.0755663514137268, 0.00276029109954834, 0.03159981966018677, 9.068324089050293, 0.3312481641769409, 3.7921297550201416, 0.374749094247818, 0.7319139838218689, 0.4980047941207886, -0.979736328125, -0.29638671875, -0.282958984375, 0, 
51, 2927353568, 0.15851129591464996, -0.5363980531692505, -0.13460874557495117, -0.8179437518119812, 1, 0.00004618149250745773, 0.00005895737558603287, 0.000024254433810710907, 0.07533305883407593, 0.0028972625732421875, 0.031289517879486084, 9.040328025817871, 0.34768539667129517, 3.754892110824585, 0.6350665092468262, 0.8107545971870422, 0.3335357904434204, -0.982177734375, -0.2919921875, -0.283935546875, 0, 
52, 2927361901, 0.15856122970581055, -0.536332368850708, -0.13463999330997467, -0.8179720044136047, 1, 0.000058992765843868256, 0.00007063057273626328, 0.000010437332093715668, 0.07516169548034668, 0.0028429031372070312, 0.031571388244628906, 9.019763946533203, 0.3411619961261749, 3.788717746734619, 0.8112412691116333, 0.971278965473175, 0.14352935552597046, -0.982177734375, -0.29443359375, -0.285400390625, 0, 
53, 2927370234, 0.1586752086877823, -0.5363121628761292, -0.1345539093017578, -0.8179773688316345, 1, 0.00007909443229436874, 0.0000768052414059639, 0.000014695338904857635, 0.0750194787979126, 0.0028728246688842773, 0.03162771463394165, 9.002696990966797, 0.3447527289390564, 3.7954773902893066, 1.087670087814331, 1.0561901330947876, 0.2020835131406784, -0.981201171875, -0.29150390625, -0.287841796875, 0, 
54, 2927378567, 0.15874497592449188, -0.5362364053726196, -0.13461251556873322, -0.8180038332939148, 1, 0.00009376835078001022, 0.0000762278214097023, 0.000010776333510875702, 0.07487601041793823, 0.0029813647270202637, 0.031594812870025635, 8.985480308532715, 0.35777804255485535, 3.7915289402008057, 1.289458990097046, 1.0482498407363892, 0.1481911540031433, -0.985107421875, -0.29541015625, -0.283935546875, 0, 
55, 2927386900, 0.1585969626903534, -0.5362473130226135, -0.1343553513288498, -0.8180674910545349, 1, 0.00010891351848840714, 0.00008988473564386368, 0.000026668421924114227, 0.07499277591705322, 0.002999603748321533, 0.03175896406173706, 8.99901294708252, 0.3602200448513031, 3.812338352203369, 1.4977281093597412, 1.2360531091690063, 0.36673179268836975, -0.983642578125, -0.29345703125, -0.285400390625, 0, 
56, 2927395233, 0.15869517624378204, -0.536158561706543, -0.13441413640975952, -0.818096935749054, 1, 0.00011091586202383041, 0.0000923527404665947, 0.000031703151762485504, 0.07521378993988037, 0.003123164176940918, 0.03200364112854004, 9.02554702758789, 0.37498608231544495, 3.8416709899902344, 1.5252636671066284, 1.2699921131134033, 0.4359670579433441, -0.982177734375, -0.2939453125, -0.281982421875, 0, 
57, 2927403566, 0.15872539579868317, -0.5361368060112, -0.13426829874515533, -0.8181294202804565, 1, 0.00013067666441202164, 0.00009331200271844864, 0.00004473980516195297, 0.07522046566009521, 0.003355741500854492, 0.03196030855178833, 9.02645206451416, 0.40280959010124207, 3.8362371921539307, 1.7970050573349, 1.2831835746765137, 0.6152411699295044, -0.983154296875, -0.294921875, -0.281982421875, 0, 
58, 2927411899, 0.1588582843542099, -0.5360350608825684, -0.13433565199375153, -0.818159282207489, 1, 0.0001386823132634163, 0.00010639335960149765, 0.00005381833761930466, 0.07524263858795166, 0.0035563111305236816, 0.03196209669113159, 9.029133796691895, 0.4268154501914978, 3.8364078998565674, 1.9070950746536255, 1.4630722999572754, 0.7400850057601929, -0.981201171875, -0.29296875, -0.285888671875, 0, 
59, 2927420232, 0.15908735990524292, -0.5359687805175781, -0.13431091606616974, -0.8181623220443726, 1, 0.00013462360948324203, 0.00010572094470262527, 0.000058931298553943634, 0.07502084970474243, 0.0037079453468322754, 0.03191816806793213, 9.002516746520996, 0.44495779275894165, 3.831144094467163, 1.8512816429138184, 1.4538254737854004, 0.8103958964347839, -0.982666015625, -0.2919921875, -0.285888671875, 0, 
60, 2927428565, 0.15922315418720245, -0.5358593463897705, -0.13437460362911224, -0.8181971907615662, 1, 0.00013777706772089005, 0.00011637900024652481, 0.00005617272108793259, 0.07470870018005371, 0.0037331581115722656, 0.03199338912963867, 8.965049743652344, 0.4480181336402893, 3.840179920196533, 1.8946465253829956, 1.600390076637268, 0.7724612355232239, -0.981689453125, -0.29443359375, -0.285400390625, 0, 
61, 2927436898, 0.15942369401454926, -0.5357933044433594, -0.1343417763710022, -0.8182066082954407, 1, 0.0001341523602604866, 0.00010439660400152206, 0.00006022956222295761, 0.07453364133834839, 0.003697812557220459, 0.032176315784454346, 8.944049835205078, 0.44373634457588196, 3.8621132373809814, 1.844801425933838, 1.4356138706207275, 0.8282491564750671, -0.983642578125, -0.29296875, -0.282470703125, 0, 
62, 2927445231, 0.15954038500785828, -0.535706102848053, -0.13439317047595978, -0.818232536315918, 1, 0.00011517200618982315, 0.00009267125278711319, 0.00005150306969881058, 0.07443428039550781, 0.003786146640777588, 0.032283663749694824, 8.932062149047852, 0.45433905720710754, 3.8751375675201416, 1.5837920904159546, 1.2743722200393677, 0.7082464694976807, -0.979736328125, -0.294921875, -0.285888671875, 0, 
63, 2927453564, 0.15971872210502625, -0.5356441140174866, -0.1343732327222824, -0.8182416558265686, 1, 0.0001134304329752922, 0.00008931104093790054, 0.00003894884139299393, 0.0742904543876648, 0.003780663013458252, 0.03249436616897583, 8.914770126342773, 0.4538242518901825, 3.900472402572632, 1.559842824935913, 1.2281641960144043, 0.5356064438819885, -0.979248046875, -0.2939453125, -0.284912109375, 0, 
64, 2927461897, 0.15981335937976837, -0.5355795621871948, -0.13442501425743103, -0.8182570338249207, 1, 0.00010142382234334946, 0.00006564054638147354, 0.00003799889236688614, 0.07416301965713501, 0.0038611888885498047, 0.03226345777511597, 8.8994779586792, 0.4634626805782318, 3.872767686843872, 1.3947336673736572, 0.9026585221290588, 0.5225432515144348, -0.984619140625, -0.29150390625, -0.283935546875, 0, 
65, 2927470230, 0.15993928909301758, -0.5355446338653564, -0.1343902349472046, -0.8182607293128967, 1, 0.00009210687130689621, 0.00005290377885103226, 0.000028806738555431366, 0.0743565559387207, 0.0038614273071289062, 0.032456398010253906, 8.92314338684082, 0.4633897840976715, 3.894923210144043, 1.266611099243164, 0.7275081872940063, 0.39613690972328186, -0.982177734375, -0.2939453125, -0.285400390625, 0, 
66, 2927478563, 0.16000080108642578, -0.5354991555213928, -0.13444095849990845, -0.8182701468467712, 1, 0.00008064229041337967, 0.00004245992749929428, 0.000014980323612689972, 0.074429452419281, 0.003911197185516357, 0.03238844871520996, 8.931890487670898, 0.46936240792274475, 3.8867690563201904, 1.1089555025100708, 0.583889365196228, 0.20600248873233795, -0.982177734375, -0.28955078125, -0.284423828125, 0, 
67, 2927486896, 0.16010865569114685, -0.5354535579681396, -0.1344166100025177, -0.8182828426361084, 1, 0.00006402190774679184, 0.00005460623651742935, 0.0000041937455534935, 0.07471787929534912, 0.003842294216156006, 0.032348453998565674, 8.966503143310547, 0.46109330654144287, 3.881969690322876, 0.8803996443748474, 0.7509196996688843, 0.05767045542597771, -0.982177734375, -0.29150390625, -0.284912109375, 0, 
68, 2927495229, 0.16013005375862122, -0.5354155898094177, -0.13443681597709656, -0.8183001279830933, 1, 0.000031820498406887054, 0.00004002917557954788, -0.0000018514692783355713, 0.07505053281784058, 0.003740251064300537, 0.03253912925720215, 9.006423950195312, 0.4488483667373657, 3.904851198196411, 0.43758076429367065, 0.5504627227783203, -0.02546055056154728, -0.980224609375, -0.2919921875, -0.284912109375, 0, 
69, 2927503562, 0.16021274030208588, -0.5353754162788391, -0.134397491812706, -0.8183168768882751, 1, 0.00001916009932756424, 0.00004607345908880234, -0.0000069588422775268555, 0.07495385408401489, 0.003971755504608154, 0.03245675563812256, 8.994821548461914, 0.47662970423698425, 3.8949661254882812, 0.2634808123111725, 0.6335809230804443, -0.09569478780031204, -0.983642578125, -0.29052734375, -0.284423828125, 0, 
70, 2927511895, 0.16020305454730988, -0.5353382229804993, -0.134403258562088, -0.8183421492576599, 1, 0.0000022919848561286926, 0.00004179123789072037, -0.00002074800431728363, 0.0751335620880127, 0.004006564617156982, 0.03248018026351929, 9.016386985778809, 0.48080694675445557, 3.8977773189544678, 0.03151831775903702, 0.5746937990188599, -0.28531697392463684, -0.982177734375, -0.29443359375, -0.282958984375, 0, 
71, 2927520228, 0.1602317988872528, -0.5352981686592102, -0.1343514770269394, -0.8183711767196655, 1, -0.000005327165126800537, 0.000045056454837322235, -0.000031948089599609375, 0.0754021406173706, 0.004130184650421143, 0.03279519081115723, 9.04861831665039, 0.49564215540885925, 3.935580015182495, -0.073256716132164, 0.6195955276489258, -0.4393353760242462, -0.982177734375, -0.29150390625, -0.282958984375, 0, 
72, 2927528561, 0.16018939018249512, -0.5352596044540405, -0.13435302674770355, -0.8184044361114502, 1, -0.000019583851099014282, 0.000043421052396297455, -0.00004678405821323395, 0.07546091079711914, 0.004122495651245117, 0.032664716243743896, 9.055670738220215, 0.4947187900543213, 3.919922351837158, -0.26930806040763855, 0.5971062183380127, -0.6433526873588562, -0.981689453125, -0.2919921875, -0.281494140625, 0, 
73, 2927536894, 0.16024087369441986, -0.5352159738540649, -0.13432607054710388, -0.818427324295044, 1, -0.000039812177419662476, 0.00003745313733816147, -0.00004700571298599243, 0.07545971870422363, 0.004071354866027832, 0.03242635726928711, 9.055527687072754, 0.4885821044445038, 3.8913183212280273, -0.5474786162376404, 0.5150381326675415, -0.6464007496833801, -0.982177734375, -0.29296875, -0.285400390625, 0, 
74, 2927545227, 0.1601700633764267, -0.5351913571357727, -0.1343100219964981, -0.8184599280357361, 1, -0.00005129911005496979, 0.00003067869693040848, -0.0000586584210395813, 0.0755053162574768, 0.003830850124359131, 0.03251993656158447, 9.060999870300293, 0.4597203731536865, 3.902548313140869, -0.7054415941238403, 0.42187923192977905, -0.8066434860229492, -0.984130859375, -0.2939453125, -0.287353515625, 0, 
75, 2927553560, 0.16012424230575562, -0.5351528525352478, -0.1342369168996811, -0.818506121635437, 1, -0.00007065758109092712, 0.0000423407182097435, -0.00007077120244503021, 0.07535117864608765, 0.0038051605224609375, 0.03244739770889282, 9.042502403259277, 0.45663750171661377, 3.893843173980713, -0.9716503620147705, 0.5822499394416809, -0.9732128381729126, -0.986572265625, -0.29345703125, -0.287841796875, 0, 
76, 2927561893, 0.16002370417118073, -0.5351188778877258, -0.13420645892620087, -0.8185529708862305, 1, -0.00007946789264678955, 0.00004437845200300217, -0.00007888674736022949, 0.07519549131393433, 0.003984630107879639, 0.03201383352279663, 9.023818969726562, 0.47817471623420715, 3.841813325881958, -1.0928057432174683, 0.6102719902992249, -1.0848139524459839, -0.980224609375, -0.29248046875, -0.285888671875, 0, 
77, 2927570226, 0.1599855124950409, -0.535079836845398, -0.13413770496845245, -0.8185973167419434, 1, -0.00009696744382381439, 0.00003983359783887863, -0.00007671117782592773, 0.07491767406463623, 0.0038457512855529785, 0.0322917103767395, 8.990143775939941, 0.4620628356933594, 3.8758716583251953, -1.3334513902664185, 0.5477731823921204, -1.0548964738845825, -0.984619140625, -0.291015625, -0.286376953125, 0, 
78, 2927578559, 0.159872367978096, -0.535050630569458, -0.1340901106595993, -0.8186463117599487, 1, -0.0001012701541185379, 0.00004245433956384659, -0.00007980130612850189, 0.07488489151000977, 0.0038055777549743652, 0.032251715660095215, 8.986220359802246, 0.4572133719921112, 3.8710525035858154, -1.392620325088501, 0.5838124752044678, -1.0973906517028809, -0.983154296875, -0.2939453125, -0.286865234375, 0, 
79, 2927586892, 0.15971526503562927, -0.5350242853164673, -0.13395242393016815, -0.8187165856361389, 1, -0.00012461096048355103, 0.000044318847358226776, -0.0000929664820432663, 0.07450741529464722, 0.003383338451385498, 0.0319896936416626, 8.941010475158691, 0.4064188599586487, 3.839426040649414, -1.713592290878296, 0.6094523668289185, -1.2784321308135986, -0.982177734375, -0.29345703125, -0.283447265625, 0, 
80, 2927595225, 0.15957044064998627, -0.5350018739700317, -0.133882537484169, -0.8187709450721741, 1, -0.00013828463852405548, 0.00003910716623067856, -0.00009376928210258484, 0.07437866926193237, 0.0035048723220825195, 0.03225797414779663, 8.925602912902832, 0.42090699076652527, 3.871523857116699, -1.901626467704773, 0.537783682346344, -1.2894718647003174, -0.980712890625, -0.2890625, -0.285400390625, 0, 
81, 2927603558, 0.1592978537082672, -0.5350022315979004, -0.13366073369979858, -0.8188601136207581, 1, -0.00014436058700084686, 0.00003676023334264755, -0.00008939951658248901, 0.07440465688705444, 0.0036969780921936035, 0.03206992149353027, 8.928736686706543, 0.443894624710083, 3.8489315509796143, -1.9851802587509155, 0.5055097937583923, -1.2293809652328491, -0.982177734375, -0.29541015625, -0.285888671875, 0, 
82, 2927611891, 0.1591499298810959, -0.5349893569946289, -0.13358066976070404, -0.8189103603363037, 1, -0.00014932453632354736, 0.000030401162803173065, -0.00008899718523025513, 0.07451450824737549, 0.0032912492752075195, 0.032038986682891846, 8.9419527053833, 0.3951779901981354, 3.845148801803589, -2.0534422397613525, 0.4180627763271332, -1.2238482236862183, -0.984130859375, -0.291015625, -0.285400390625, 0, 
83, 2927620224, 0.15898221731185913, -0.5349883437156677, -0.13343000411987305, -0.8189680576324463, 1, -0.00014946982264518738, 0.00001643504947423935, -0.00008710101246833801, 0.07472294569015503, 0.0033218860626220703, 0.032397329807281494, 8.96701431274414, 0.39883968234062195, 3.8880393505096436, -2.0554397106170654, 0.22600719332695007, -1.1977728605270386, -0.983154296875, -0.29345703125, -0.284423828125, 0, 
84, 2927628557, 0.15883302688598633, -0.5349979996681213, -0.1333574652671814, -0.8190025091171265, 1, -0.00014542602002620697, 0.00000205356627702713, -0.00008865632116794586, 0.07493865489959717, 0.0031805038452148438, 0.03215515613555908, 8.992955207824707, 0.3819182217121124, 3.858848810195923, -1.9998314380645752, 0.028239693492650986, -1.2191606760025024, -0.986083984375, -0.29443359375, -0.281982421875, 0, 
85, 2927636890, 0.1586420089006424, -0.5350190997123718, -0.13319450616836548, -0.8190523982048035, 1, -0.00014610029757022858, -0.000005751848220825195, -0.00008349120616912842, 0.07525646686553955, 0.0032309889793395996, 0.032357633113861084, 9.031126022338867, 0.38793042302131653, 3.8830759525299072, -2.009103775024414, -0.07909676432609558, -1.148132562637329, -0.981201171875, -0.29052734375, -0.284912109375, 0, 
86, 2927645223, 0.15849101543426514, -0.5350328683853149, -0.1331312209367752, -0.8190829753875732, 1, -0.00013892166316509247, -0.000004997476935386658, -0.00009394995868206024, 0.07550030946731567, 0.0032532215118408203, 0.03234434127807617, 9.060380935668945, 0.39073246717453003, 3.8814854621887207, -1.9103866815567017, -0.06872299313545227, -1.2919565439224243, -0.981689453125, -0.2919921875, -0.284423828125, 0, 
87, 2927653556, 0.15841172635555267, -0.535028338432312, -0.13304778933525085, -0.8191146850585938, 1, -0.00014351308345794678, 0.0000014835968613624573, -0.00008984655141830444, 0.0756981372833252, 0.003260791301727295, 0.032376229763031006, 9.084096908569336, 0.39157935976982117, 3.8853752613067627, -1.9735257625579834, 0.020401740446686745, -1.2355283498764038, -0.982666015625, -0.291015625, -0.284423828125, 0, 
88, 2927661889, 0.15825937688350677, -0.5350308418273926, -0.1329864263534546, -0.8191524147987366, 1, -0.00013721361756324768, 0.0000075837597250938416, -0.00009882636368274689, 0.0756959319114685, 0.0033562779426574707, 0.032394468784332275, 9.083803176879883, 0.4031483829021454, 3.887620687484741, -1.8868982791900635, 0.10428835451602936, -1.3590142726898193, -0.981201171875, -0.2919921875, -0.283935546875, 0, 
89, 2927670222, 0.15807057917118073, -0.5350246429443359, -0.1328268200159073, -0.8192189335823059, 1, -0.0001409631222486496, 0.000026659108698368073, -0.000090060755610466, 0.07549893856048584, 0.0033516287803649902, 0.032028913497924805, 9.060090065002441, 0.40249624848365784, 3.84393310546875, -1.9384596347808838, 0.36660370230674744, -1.2384737730026245, -0.983642578125, -0.29248046875, -0.286376953125, 0, 
90, 2927678555, 0.15792156755924225, -0.5350101590156555, -0.1327648162841797, -0.819267213344574, 1, -0.00013485923409461975, 0.000027521513402462006, -0.00009968876838684082, 0.0752863883972168, 0.0032197237014770508, 0.031831324100494385, 9.034578323364258, 0.3867800235748291, 3.8202219009399414, -1.854521632194519, 0.37846311926841736, -1.3708739280700684, -0.983642578125, -0.29052734375, -0.288330078125, 0, 
91, 2927686888, 0.15797670185565948, -0.534953236579895, -0.13276256620883942, -0.8192939162254333, 1, -0.00013298913836479187, 0.00004218984395265579, -0.00008725002408027649, 0.0751771330833435, 0.003159940242767334, 0.032002151012420654, 9.021401405334473, 0.37951207160949707, 3.840885877609253, -1.8288053274154663, 0.5801752805709839, -1.1998220682144165, -0.982666015625, -0.2919921875, -0.286376953125, 0, 
92, 2927695221, 0.1578446626663208, -0.5349295735359192, -0.13268625736236572, -0.8193472027778625, 1, -0.00013682805001735687, 0.00004232395440340042, -0.00008034519851207733, 0.07508617639541626, 0.0029352307319641113, 0.03195810317993164, 9.010490417480469, 0.3524618446826935, 3.8356003761291504, -1.8815960884094238, 0.5820193886756897, -1.1048699617385864, -0.983642578125, -0.29296875, -0.285888671875, 0, 
93, 2927703554, 0.15789161622524261, -0.534873902797699, -0.13265737891197205, -0.8193793296813965, 1, -0.00013049691915512085, 0.00005070585757493973, -0.000067954882979393, 0.07513570785522461, 0.002512216567993164, 0.031956374645233154, 9.016380310058594, 0.301616370677948, 3.835529327392578, -1.794533371925354, 0.6972835063934326, -0.9344841837882996, -0.982666015625, -0.294921875, -0.285888671875, 0, 
94, 2927711887, 0.15779156982898712, -0.5348509550094604, -0.13257703185081482, -0.8194265961647034, 1, -0.0001225043088197708, 0.00004331115633249283, -0.000050960108637809753, 0.07512468099594116, 0.002121567726135254, 0.03175759315490723, 9.01504898071289, 0.25458675622940063, 3.811708450317383, -1.6846225261688232, 0.5955948829650879, -0.7007797956466675, -0.982666015625, -0.29150390625, -0.285400390625, 0, 
95, 2927720220, 0.15769807994365692, -0.5348337292671204, -0.1324390321969986, -0.8194780349731445, 1, -0.00010784715414047241, 0.00003986898809671402, -0.000041173771023750305, 0.07544094324111938, 0.0021225810050964355, 0.03194987773895264, 9.052948951721191, 0.25463831424713135, 3.8349146842956543, -1.4830641746520996, 0.5482598543167114, -0.5662026405334473, -0.978271484375, -0.291748046875, -0.2880859375, 0, 
96, 2927728553, 0.15763404965400696, -0.5348091125488281, -0.1323661208152771, -0.8195182681083679, 1, -0.00009613856673240662, 0.000044547952711582184, -0.000024627894163131714, 0.07607990503311157, 0.0019426345825195312, 0.032261788845062256, 9.129953384399414, 0.23312577605247498, 3.8715693950653076, -1.3220531940460205, 0.6126028299331665, -0.3386714458465576, -0.982666015625, -0.29248046875, -0.287841796875, 0, 
97, 2927736886, 0.15764601528644562, -0.5347652435302734, -0.13225671648979187, -0.8195621967315674, 1, -0.00008185021579265594, 0.00006611179560422897, -0.00000204332172870636, 0.07647812366485596, 0.0017361640930175781, 0.03212970495223999, 9.177742004394531, 0.20834769308567047, 3.8557183742523193, -1.1255662441253662, 0.9091387391090393, -0.02809881418943405, -0.985595703125, -0.2919921875, -0.287353515625, 0, 
98, 2927745219, 0.15764884650707245, -0.5347155332565308, -0.13218818604946136, -0.8196051120758057, 1, -0.000053277239203453064, 0.00007475446909666061, 0.000023904256522655487, 0.07653605937957764, 0.0016718506813049316, 0.0321086049079895, 9.184694290161133, 0.2006300985813141, 3.8531863689422607, -0.7326439023017883, 1.0279887914657593, 0.3287202715873718, -0.981689453125, -0.2919921875, -0.283935546875, 0, 
99, 2927753552, 0.15752381086349487, -0.5346747040748596, -0.13197042047977448, -0.8196908831596375, 1, -0.000010242685675621033, 0.00009954627603292465, 0.00003447476774454117, 0.07634782791137695, 0.0016441941261291504, 0.03222537040710449, 9.16210651397705, 0.1973111480474472, 3.867199420928955, -0.1408526748418808, 1.3689143657684326, 0.47408103942871094, -0.983154296875, -0.2900390625, -0.287841796875, 0, 
100, 2927761885, 0.1575925201177597, -0.5345791578292847, -0.13193462789058685, -0.8197457790374756, 1, 0.000014421530067920685, 0.00012219790369272232, 0.00005246791988611221, 0.07598626613616943, 0.0019237399101257324, 0.03218346834182739, 9.117950439453125, 0.23015402257442474, 3.864020824432373, 0.19831819832324982, 1.6804090738296509, 0.7215145826339722, -0.983642578125, -0.29345703125, -0.285888671875, 0, 
101, 2927770218, 0.15787923336029053, -0.534445583820343, -0.13196063041687012, -0.8197735548019409, 1, 0.000045078806579113007, 0.0001427857205271721, 0.00006712507456541061, 0.07556557655334473, 0.0018746256828308105, 0.03241163492202759, 9.067633628845215, 0.22448451817035675, 3.8909733295440674, 0.6199029088020325, 1.9635233879089355, 0.9230730533599854, -0.984619140625, -0.29248046875, -0.289794921875, 0, 
102, 2927778551, 0.15801231563091278, -0.5343058109283447, -0.1319562941789627, -0.8198397755622864, 1, 0.00008011143654584885, 0.00016795191913843155, 0.00008066277951002121, 0.07525026798248291, 0.0018909573554992676, 0.03252285718917847, 9.02993106842041, 0.2266228049993515, 3.903984546661377, 1.10165536403656, 2.3095970153808594, 1.1092373132705688, -0.981689453125, -0.29345703125, -0.285888671875, 0, 
103, 2927786884, 0.1582171767950058, -0.5341557860374451, -0.131925567984581, -0.8199029564857483, 1, 0.00010632630437612534, 0.00018218252807855606, 0.00008510332554578781, 0.07502275705337524, 0.002110421657562256, 0.0325053334236145, 9.002296447753906, 0.2528553903102875, 3.9026544094085693, 1.4621502161026, 2.5052897930145264, 1.1703015565872192, -0.985107421875, -0.29150390625, -0.286865234375, 0, 
104, 2927795217, 0.15839196741580963, -0.5339977741241455, -0.13195158541202545, -0.8199679851531982, 1, 0.00013011600822210312, 0.0001829611137509346, 0.00009618047624826431, 0.07480579614639282, 0.0024163126945495605, 0.03278172016143799, 8.976362228393555, 0.2896181046962738, 3.9355669021606445, 1.7892953157424927, 2.5159966945648193, 1.3226295709609985, -0.984130859375, -0.28955078125, -0.286376953125, 0, 
105, 2927803550, 0.15921200811862946, -0.533745527267456, -0.13231922686100006, -0.8199139833450317, 0.9999999403953552, 0.00015222001820802689, 0.00018794555217027664, 0.00010301079601049423, 0.07451528310775757, 0.0025539398193359375, 0.03302282094955444, 8.94157600402832, 0.30621105432510376, 3.964306354522705, 2.093259334564209, 2.584540367126465, 1.41655695438385, -0.982666015625, -0.29443359375, -0.288330078125, 0, 
106, 2927811883, 0.1594189703464508, -0.5336000323295593, -0.1323726773262024, -0.8199599385261536, 0.9999999403953552, 0.00017025601118803024, 0.00016235094517469406, 0.00011247675865888596, 0.07445567846298218, 0.0026856064796447754, 0.03303736448287964, 8.934505462646484, 0.32199662923812866, 3.9658656120300293, 2.341282367706299, 2.2325751781463623, 1.546728491783142, -0.983642578125, -0.2900390625, -0.288818359375, 0, 
107, 2927820216, 0.15953798592090607, -0.5334833860397339, -0.13228817284107208, -0.8200263977050781, 0.9999999403953552, 0.00017717760056257248, 0.00015962962061166763, 0.00011533964425325394, 0.07438403367996216, 0.0027411580085754395, 0.033015549182891846, 8.925935745239258, 0.3286741077899933, 3.9631848335266113, 2.436464786529541, 2.195152759552002, 1.5860975980758667, -0.984130859375, -0.291015625, -0.285888671875, 0, 
108, 2927828549, 0.15974606573581696, -0.5333585143089294, -0.13235026597976685, -0.8200570940971375, 1, 0.00017628539353609085, 0.0001361565664410591, 0.00011365767568349838, 0.0743262767791748, 0.0027934908866882324, 0.0331612229347229, 8.919029235839844, 0.33493492007255554, 3.980607032775879, 2.4241950511932373, 1.8723621368408203, 1.5629677772521973, -0.981201171875, -0.28857421875, -0.286865234375, 0, 
109, 2927836882, 0.1603134274482727, -0.5331966280937195, -0.13256199657917023, -0.820017397403717, 1, 0.00017409119755029678, 0.00012381840497255325, 0.00011757295578718185, 0.07422095537185669, 0.002917647361755371, 0.03350275754928589, 8.906412124633789, 0.34978345036506653, 4.021536350250244, 2.39402174949646, 1.7026933431625366, 1.6168088912963867, -0.984619140625, -0.2861328125, -0.286376953125, 0, 
110, 2927845215, 0.16052545607089996, -0.5330994725227356, -0.1326170712709427, -0.8200302124023438, 1, 0.00017060060054063797, 0.00010545831173658371, 0.00012690480798482895, 0.07406359910964966, 0.0029777884483337402, 0.03316885232925415, 8.887590408325195, 0.35687386989593506, 3.981348991394043, 2.3460206985473633, 1.45021390914917, 1.7451363801956177, -0.988037109375, -0.29052734375, -0.286865234375, 0, 
111, 2927853548, 0.1611398458480835, -0.5329484343528748, -0.1328594833612442, -0.8199684023857117, 1, 0.0001641334965825081, 0.00009857770055532455, 0.00011905189603567123, 0.07425826787948608, 0.0029309988021850586, 0.03300166130065918, 8.91093921661377, 0.35125234723091125, 3.961320161819458, 2.2570879459381104, 1.3555949926376343, 1.6371464729309082, -0.983154296875, -0.2900390625, -0.287841796875, 0, 
112, 2927861881, 0.16133810579776764, -0.5328648686408997, -0.13291803002357483, -0.8199742436408997, 1, 0.00016445759683847427, 0.00008823256939649582, 0.00011644978076219559, 0.07400637865066528, 0.003152012825012207, 0.03289496898651123, 8.880744934082031, 0.3777827024459839, 3.9484426975250244, 2.261544942855835, 1.2133337259292603, 1.6013636589050293, -0.983642578125, -0.28759765625, -0.286376953125, 0, 
113, 2927870214, 0.16162991523742676, -0.5327662825584412, -0.13295964896678925, -0.8199742436408997, 1, 0.00016491767019033432, 0.00009351503103971481, 0.0001130448654294014, 0.07394015789031982, 0.0031600594520568848, 0.03290659189224243, 8.872773170471191, 0.3787921369075775, 3.94988751411438, 2.267871379852295, 1.285975456237793, 1.5545406341552734, -0.984130859375, -0.28857421875, -0.286376953125, 0, 
114, 2927878547, 0.16181960701942444, -0.5326762795448303, -0.13302697241306305, -0.8199844360351562, 1, 0.00016700197011232376, 0.00009326916188001633, 0.00010280217975378036, 0.07386952638626099, 0.003552258014678955, 0.032804131507873535, 8.864288330078125, 0.42596736550331116, 3.937608242034912, 2.2965338230133057, 1.2825944423675537, 1.413688063621521, -0.984130859375, -0.28759765625, -0.284912109375, 0, 
115, 2927886880, 0.16231872141361237, -0.5325402021408081, -0.1332114040851593, -0.8199440836906433, 1, 0.00015520025044679642, 0.00009331200271844864, 0.00010249298065900803, 0.07400476932525635, 0.003352642059326172, 0.03275364637374878, 8.88070297241211, 0.4021265506744385, 3.931121826171875, 2.134242057800293, 1.2831834554672241, 1.4094359874725342, -0.985595703125, -0.2861328125, -0.287841796875, 0, 
116, 2927895213, 0.16248562932014465, -0.5324586629867554, -0.13327617943286896, -0.8199535012245178, 1, 0.00015130732208490372, 0.00008306000381708145, 0.00008664187043905258, 0.0742064118385315, 0.003480255603790283, 0.033183276653289795, 8.904889106750488, 0.4175123870372772, 3.9826927185058594, 2.0807082653045654, 1.1422028541564941, 1.1914589405059814, -0.983642578125, -0.28857421875, -0.286376953125, 0, 
117, 2927903546, 0.16265855729579926, -0.5323824882507324, -0.13329245150089264, -0.8199660181999207, 1, 0.0001525646075606346, 0.00007155444473028183, 0.00006794650107622147, 0.07451194524765015, 0.00330275297164917, 0.03295087814331055, 8.941558837890625, 0.39634209871292114, 3.954786539077759, 2.0979981422424316, 0.9839838743209839, 0.934368908405304, -0.986083984375, -0.28759765625, -0.288818359375, 0, 
118, 2927911879, 0.16280294954776764, -0.5323153734207153, -0.13338251411914825, -0.8199663162231445, 1, 0.00015830900520086288, 0.000059281475841999054, 0.00005773920565843582, 0.07447993755340576, 0.003244161605834961, 0.03279125690460205, 8.937751770019531, 0.38941454887390137, 3.9355454444885254, 2.176992654800415, 0.8152115345001221, 0.794002890586853, -0.983642578125, -0.287109375, -0.285400390625, 0, 
119, 2927920212, 0.16328683495521545, -0.5322059988975525, -0.13361920416355133, -0.8199025392532349, 1, 0.00014304276555776596, 0.00004419032484292984, 0.000054652802646160126, 0.07452380657196045, 0.0032334327697753906, 0.03267735242843628, 8.943035125732422, 0.3881123661994934, 3.921837329864502, 1.9670580625534058, 0.607684850692749, 0.7515600323677063, -0.984130859375, -0.28857421875, -0.285888671875, 0, 
120, 2927928545, 0.16340316832065582, -0.5321606397628784, -0.13372261822223663, -0.8198919296264648, 1, 0.00015185866504907608, 0.000029656104743480682, 0.00003193039447069168, 0.07458215951919556, 0.0035302042961120605, 0.032398760318756104, 8.950095176696777, 0.4240052402019501, 3.888246536254883, 2.088290214538574, 0.4078170657157898, 0.43909206986427307, -0.986083984375, -0.2890625, -0.287353515625, 0, 
121, 2927936878, 0.16370652616024017, -0.5320895314216614, -0.1338825523853302, -0.8198515772819519, 1, 0.00015002768486738205, 0.00002217944711446762, 0.0000266125425696373, 0.07473427057266235, 0.00355452299118042, 0.03228229284286499, 8.968377113342285, 0.42699041962623596, 3.874199628829956, 2.0631113052368164, 0.30500149726867676, 0.3659633696079254, -0.982177734375, -0.28759765625, -0.286376953125, 0, 
122, 2927945211, 0.16381320357322693, -0.5320505499839783, -0.13398300111293793, -0.8198391199111938, 1, 0.00014299247413873672, 0.000022494234144687653, 0.00002657342702150345, 0.07473009824752808, 0.0035872459411621094, 0.03249859809875488, 8.967864990234375, 0.4309261739253998, 3.9001808166503906, 1.9663662910461426, 0.3093303143978119, 0.3654254674911499, -0.988525390625, -0.2861328125, -0.285400390625, 0, 
123, 2927953544, 0.1641993373632431, -0.5319727659225464, -0.1342044621706009, -0.8197760581970215, 1, 0.00013405364006757736, 0.000012139789760112762, 0.00001737195998430252, 0.07477444410324097, 0.0036861300468444824, 0.032411396503448486, 8.973227500915527, 0.4429447054862976, 3.8896026611328125, 1.843443751335144, 0.16694079339504242, 0.23889119923114777, -0.983642578125, -0.2861328125, -0.288330078125, 0, 
124, 2927961877, 0.16427700221538544, -0.531953752040863, -0.1343022882938385, -0.8197568655014038, 1, 0.00012262817472219467, -8.475035429000854e-7, 0.00000766012817621231, 0.0746680498123169, 0.003955841064453125, 0.032064199447631836, 8.960537910461426, 0.47551587224006653, 3.8477275371551514, 1.6863259077072144, -0.011654476635158062, 0.10533854365348816, -0.980224609375, -0.287109375, -0.287109375, 0, 
125, 2927970210, 0.16443361341953278, -0.5319180488586426, -0.13438056409358978, -0.8197358250617981, 1, 0.00010200496762990952, 0.000004309229552745819, 0.000002327375113964081, 0.0746527910232544, 0.003838181495666504, 0.03219825029373169, 8.95869255065918, 0.4606001377105713, 3.8639438152313232, 1.402725100517273, 0.05925852805376053, 0.032004985958337784, -0.984619140625, -0.287109375, -0.284912109375, 0, 
126, 2927978543, 0.16447889804840088, -0.5318921804428101, -0.13444796204566956, -0.8197325468063354, 1, 0.00007899384945631027, 0.000013773329555988312, -0.000006679445505142212, 0.07462072372436523, 0.003888845443725586, 0.03225952386856079, 8.95484447479248, 0.4666800796985626, 3.8712973594665527, 1.0862869024276733, 0.1894044727087021, -0.09185264259576797, -0.984619140625, -0.287109375, -0.286376953125, 0, 
127, 2927986876, 0.1644493192434311, -0.5318740010261536, -0.13441607356071472, -0.8197553157806396, 1, 0.00005395989865064621, 0.000015451572835445404, -0.00002828240394592285, 0.07474356889724731, 0.0036042332649230957, 0.032410621643066406, 8.969586372375488, 0.4325251579284668, 3.8894307613372803, 0.7420315742492676, 0.21248288452625275, -0.38892653584480286, -0.982666015625, -0.28955078125, -0.287841796875, 0, 
128, 2927995209, 0.16445434093475342, -0.5318374633789062, -0.1344563364982605, -0.8197714686393738, 1, 0.00003420095890760422, 0.00003179255872964859, -0.00003006681799888611, 0.07474488019943237, 0.0034600496292114258, 0.03236442804336548, 8.969743728637695, 0.4152223467826843, 3.8838868141174316, 0.47031572461128235, 0.4371965527534485, -0.4134649336338043, -0.982666015625, -0.28759765625, -0.286865234375, 0, 
129, 2928003542, 0.16455598175525665, -0.5317848324775696, -0.13449488580226898, -0.8197789192199707, 1, 0.000018103979527950287, 0.00003397371619939804, -0.000032057985663414, 0.07461011409759521, 0.003145575523376465, 0.03230142593383789, 8.953571319580078, 0.37748414278030396, 3.876325845718384, 0.2489575445652008, 0.46719080209732056, -0.44084659218788147, -0.985107421875, -0.2880859375, -0.286865234375, 0, 
130, 2928011875, 0.16453461349010468, -0.5317515730857849, -0.13451449573040009, -0.8198015689849854, 1, 0.0000011278316378593445, 0.000032271258533000946, -0.000041715800762176514, 0.07475864887237549, 0.002919137477874756, 0.03267097473144531, 8.971396446228027, 0.35031047463417053, 3.9206736087799072, 0.01550941914319992, 0.4437793493270874, -0.5736563205718994, -0.983642578125, -0.28955078125, -0.286865234375, 0, 
131, 2928020208, 0.1646408587694168, -0.531691312789917, -0.13457044959068298, -0.819810152053833, 1, -0.0000060889869928359985, 0.000037697143852710724, -0.000056024640798568726, 0.07467031478881836, 0.002760589122772217, 0.03239750862121582, 8.960795402526855, 0.3312838077545166, 3.8878564834594727, -0.08373293280601501, 0.5183936357498169, -0.7704249024391174, -0.983642578125, -0.2861328125, -0.288818359375, 0, 
132, 2928028541, 0.16460376977920532, -0.5316569209098816, -0.13460269570350647, -0.8198345303535461, 1, 0.0000029401853680610657, 0.000029931776225566864, -0.00006186962127685547, 0.0745578408241272, 0.0028411149978637695, 0.03255552053451538, 8.947298049926758, 0.3409474194049835, 3.906818389892578, 0.04043206945061684, 0.41160792112350464, -0.8508024215698242, -0.985595703125, -0.28662109375, -0.285888671875, 0, 
133, 2928036874, 0.16467079520225525, -0.531608521938324, -0.13464844226837158, -0.8198449611663818, 1, 0.000005816109478473663, 0.000027689151465892792, -0.00006258301436901093, 0.07455688714981079, 0.002914130687713623, 0.03239309787750244, 8.947183609008789, 0.3497096300125122, 3.887326955795288, 0.07998044788837433, 0.38076838850975037, -0.8606126308441162, -0.983154296875, -0.28564453125, -0.284912109375, 0, 
134, 2928045207, 0.16463565826416016, -0.5315815806388855, -0.13468898832798004, -0.8198628425598145, 1, 0.000009928829967975616, 0.00001925509423017502, -0.00006285868585109711, 0.07462996244430542, 0.002768576145172119, 0.032639920711517334, 8.955952644348145, 0.3322423994541168, 3.9169468879699707, 0.13653667271137238, 0.26478713750839233, -0.8644035458564758, -0.983642578125, -0.2900390625, -0.283935546875, 0, 
135, 2928053540, 0.16460706293582916, -0.5315575003623962, -0.13467635214328766, -0.8198862671852112, 1, 0.000010884366929531097, 0.000017342157661914825, -0.0000613182783126831, 0.07435542345046997, 0.0027461647987365723, 0.03253203630447388, 8.923006057739258, 0.3295527994632721, 3.9040000438690186, 0.14967681467533112, 0.238481342792511, -0.8432207107543945, -0.981201171875, -0.28466796875, -0.286376953125, 0, 
136, 2928061873, 0.16458649933338165, -0.5315414071083069, -0.1347154676914215, -0.8198944330215454, 1, 0.00001575332134962082, 0.000007255934178829193, -0.00004741549491882324, 0.07426583766937256, 0.002712249755859375, 0.03231900930404663, 8.912256240844727, 0.32548296451568604, 3.8784358501434326, 0.21663238108158112, 0.09978024661540985, -0.6520359516143799, -0.981689453125, -0.2861328125, -0.283447265625, 0, 
137, 2928070206, 0.16490663588047028, -0.5314715504646301, -0.13492442667484283, -0.8198408484458923, 1, 0.00003599468618631363, 0.0000067641958594322205, -0.000043472275137901306, 0.07442629337310791, 0.0029937028884887695, 0.03255516290664673, 8.931511878967285, 0.3592586815357208, 3.90677547454834, 0.4949822723865509, 0.09301809221506119, -0.5978106260299683, -0.985595703125, -0.2861328125, -0.284423828125, 0, 
138, 2928078539, 0.164910688996315, -0.5314650535583496, -0.13498449325561523, -0.8198343515396118, 1, 0.00004582200199365616, -0.000008609145879745483, -0.00003494136035442352, 0.07450419664382935, 0.002866685390472412, 0.03252434730529785, 8.940860748291016, 0.3440159857273102, 3.9030776023864746, 0.6301229596138, -0.11838898807764053, -0.4804973602294922, -0.982666015625, -0.28466796875, -0.284912109375, 0, 
139, 2928086872, 0.1650075763463974, -0.5314363241195679, -0.13505569100379944, -0.819821834564209, 1, 0.00006471853703260422, 0.0000014221295714378357, -0.000036174431443214417, 0.07457798719406128, 0.0027176737785339355, 0.03290295600891113, 8.949715614318848, 0.3261338770389557, 3.948512315750122, 0.889979362487793, 0.019556468352675438, -0.49745404720306396, -0.984130859375, -0.28759765625, -0.286865234375, 0, 
140, 2928095205, 0.16502653062343597, -0.5314260125160217, -0.13513903319835663, -0.8198109865188599, 1, 0.0000734897330403328, -0.000009611248970031738, -0.0000352468341588974, 0.07477772235870361, 0.0025305747985839844, 0.03297877311706543, 8.973685264587402, 0.3036811053752899, 3.957610845565796, 1.0105969905853271, -0.1321694552898407, -0.48469817638397217, -0.987548828125, -0.28564453125, -0.284912109375, 0, 
141, 2928103538, 0.16523055732250214, -0.5313915610313416, -0.13528938591480255, -0.819767415523529, 1, 0.00006783846765756607, -0.00001545622944831848, -0.00004021264612674713, 0.07472723722457886, 0.0025029778480529785, 0.033418357372283936, 8.967626571655273, 0.3003693222999573, 4.0103631019592285, 0.9328832626342773, -0.2125469148159027, -0.5529857277870178, -0.982177734375, -0.287109375, -0.286376953125, 0, 
142, 2928111871, 0.16524064540863037, -0.5313901901245117, -0.13536325097084045, -0.8197540640830994, 1, 0.000059126876294612885, -0.000017929822206497192, -0.00003623589873313904, 0.07506304979324341, 0.0026568174362182617, 0.033330440521240234, 9.007925987243652, 0.31883081793785095, 3.999812602996826, 0.8130853772163391, -0.24656260013580322, -0.4982992708683014, -0.984130859375, -0.2861328125, -0.285400390625, 0, 
143, 2928120204, 0.16548147797584534, -0.531352698802948, -0.13553722202777863, -0.8197011351585388, 1, 0.000054434873163700104, -0.00002039782702922821, -0.0000456981360912323, 0.07540971040725708, 0.003021717071533203, 0.03335225582122803, 9.04952621459961, 0.3626205325126648, 4.002430438995361, 0.748563289642334, -0.28050148487091064, -0.6284196972846985, -0.982177734375, -0.28662109375, -0.284912109375, 0, 
144, 2928128537, 0.16546405851840973, -0.5313557982444763, -0.1356002539396286, -0.8196921944618225, 1, 0.000033748336136341095, -0.000021319836378097534, -0.0000535864382982254, 0.07574349641799927, 0.0032349824905395508, 0.0333712100982666, 9.089581489562988, 0.38821327686309814, 4.004704475402832, 0.4640915095806122, -0.29318052530288696, -0.7368959188461304, -0.986572265625, -0.29052734375, -0.286865234375, 0, 
145, 2928136870, 0.16582736372947693, -0.5312888622283936, -0.1358492374420166, -0.8196209669113159, 1, 0.000012517906725406647, -0.000011390075087547302, -0.0000630691647529602, 0.07594329118728638, 0.003217637538909912, 0.03336977958679199, 9.113558769226074, 0.3861319124698639, 4.004533290863037, 0.1721404641866684, -0.15663105249404907, -0.8672979474067688, -0.985107421875, -0.28466796875, -0.284423828125, 0, 
146, 2928145203, 0.16576333343982697, -0.5312739610671997, -0.13588300347328186, -0.8196378946304321, 1, -0.000015966594219207764, 0.00000559631735086441, -0.00008315593004226685, 0.07601922750473022, 0.0032592415809631348, 0.03339993953704834, 9.122671127319336, 0.3911246061325073, 4.008152961730957, -0.21956521272659302, 0.07695796340703964, -1.143521785736084, -0.986083984375, -0.28564453125, -0.283447265625, 0, 
147, 2928153536, 0.16624514758586884, -0.531160831451416, -0.13621874153614044, -0.8195579648017883, 1, -0.000039516016840934753, 0.000013546086847782135, -0.00010137073695659637, 0.07581949234008789, 0.0034069418907165527, 0.03327828645706177, 9.098702430725098, 0.4088493585586548, 3.993553876876831, -0.5434059500694275, 0.1862795054912567, -1.3940035104751587, -0.989013671875, -0.28759765625, -0.283447265625, 0, 
148, 2928161869, 0.166139155626297, -0.5311397314071655, -0.13621236383914948, -0.8195942640304565, 1, -0.00007331930100917816, 0.000021877698600292206, -0.00010069087147712708, 0.07546806335449219, 0.0034468770027160645, 0.033154428005218506, 9.056288719177246, 0.4147971570491791, 3.979116439819336, -1.0082530975341797, 0.3008520007133484, -1.3846542835235596, -0.987060546875, -0.28759765625, -0.283935546875, 0, 
149, 2928170202, 0.16653260588645935, -0.531021237373352, -0.13646934926509857, -0.8195484280586243, 1, -0.00010458752512931824, 0.00003952067345380783, -0.00011590495705604553, 0.07512950897216797, 0.003544449806213379, 0.03310948610305786, 9.015664100646973, 0.42607420682907104, 3.97375750541687, -1.438239336013794, 0.5434699654579163, -1.5938713550567627, -0.982666015625, -0.2880859375, -0.283447265625, 0, 
150, 2928178535, 0.1663801372051239, -0.531000018119812, -0.1364213228225708, -0.8196012377738953, 1, -0.00013525784015655518, 0.00003121141344308853, -0.00011997856199741364, 0.07461351156234741, 0.0034456253051757812, 0.0327569842338562, 8.953825950622559, 0.41397184133529663, 3.9312920570373535, -1.8600033521652222, 0.4292049705982208, -1.6498897075653076, -0.982666015625, -0.287109375, -0.286376953125, 0, 
151, 2928186868, 0.16611729562282562, -0.5310074687004089, -0.13623616099357605, -0.8196805119514465, 1, -0.000172346830368042, 0.000021428801119327545, -0.00012505799531936646, 0.07430523633956909, 0.0033100247383117676, 0.03293973207473755, 8.916810035705566, 0.3977833688259125, 3.953263759613037, -2.3700339794158936, 0.2946789860725403, -1.7197396755218506, -0.984619140625, -0.28564453125, -0.283935546875, 0, 
152, 2928195201, 0.16591352224349976, -0.5310088396072388, -0.13613036274909973, -0.8197384476661682, 0.9999999403953552, -0.00021532922983169556, 0.000017912127077579498, -0.00012965500354766846, 0.07370239496231079, 0.003549933433532715, 0.03307729959487915, 8.844522476196289, 0.4262830913066864, 3.9696695804595947, -2.961108446121216, 0.24631930887699127, -1.7829557657241821, -0.985107421875, -0.2841796875, -0.284912109375, 0, 
153, 2928203534, 0.16612587869167328, -0.5309619903564453, -0.13624036312103271, -0.819707453250885, 0.9999999403953552, -0.0002524871379137039, -0.000007800757884979248, -0.00014141947031021118, 0.07341396808624268, 0.0033524632453918457, 0.03304409980773926, 8.8100004196167, 0.4025726616382599, 3.965485095977783, -3.4720864295959473, -0.10727240890264511, -1.944735050201416, -0.986083984375, -0.287109375, -0.284912109375, 0, 
154, 2928211867, 0.16586416959762573, -0.5310156941413879, -0.1360955387353897, -0.8197498321533203, 0.9999999403953552, -0.00028525665402412415, -0.00003472156822681427, -0.00014709867537021637, 0.07318520545959473, 0.0035091638565063477, 0.03281521797180176, 8.782639503479004, 0.4212610721588135, 3.9378247261047363, -3.922717809677124, -0.47747498750686646, -2.0228331089019775, -0.982177734375, -0.2890625, -0.285400390625, 0, 
155, 2928220200, 0.1658007651567459, -0.5310452580451965, -0.13602522015571594, -0.819754958152771, 0.9999999403953552, -0.00031227804720401764, -0.00004714168608188629, -0.0001564379781484604, 0.07293909788131714, 0.0034881234169006348, 0.03308326005935669, 8.753157615661621, 0.41871577501296997, 3.969878911972046, -4.2943034172058105, -0.6482707262039185, -2.1512627601623535, -0.985595703125, -0.29052734375, -0.283935546875, 0, 
156, 2928228533, 0.16548489034175873, -0.5311257839202881, -0.1358533650636673, -0.8197950720787048, 0.9999999403953552, -0.00034102611243724823, -0.00006082281470298767, -0.0001736711710691452, 0.07274371385574341, 0.003550708293914795, 0.0329245924949646, 8.729759216308594, 0.4262695014476776, 3.95072603225708, -4.689632892608643, -0.8364071249961853, -2.3882455825805664, -0.982666015625, -0.2900390625, -0.283447265625, 0, 
157, 2928236866, 0.16534096002578735, -0.5312097668647766, -0.1357296258211136, -0.8197903037071228, 0.9999999403953552, -0.0003590155392885208, -0.00009802356362342834, -0.00016362778842449188, 0.07279789447784424, 0.0032966136932373047, 0.03282254934310913, 8.736444473266602, 0.3956260681152344, 3.9380905628204346, -4.937015533447266, -1.3479747772216797, -2.250133752822876, -0.981689453125, -0.287109375, -0.283447265625, 0, 
158, 2928245199, 0.16501113772392273, -0.5313494801521301, -0.13552813231945038, -0.8197997212409973, 0.9999998807907104, -0.0003792364150285721, -0.00012270361185073853, -0.00015659816563129425, 0.0728234052658081, 0.0031639933586120605, 0.03259474039077759, 8.739567756652832, 0.3795824348926544, 3.9106199741363525, -5.215084075927734, -1.6873632669448853, -2.153465509414673, -0.986083984375, -0.28662109375, -0.284912109375, 0, 
159, 2928253532, 0.16483549773693085, -0.53147953748703, -0.13540075719356537, -0.8197716474533081, 0.9999998807907104, -0.00037469901144504547, -0.0001526661217212677, -0.00017307698726654053, 0.07305049896240234, 0.0029878616333007812, 0.03231900930404663, 8.766899108886719, 0.35861706733703613, 3.877324342727661, -5.152688503265381, -2.0993940830230713, -2.380074977874756, -0.983642578125, -0.28369140625, -0.287841796875, 0, 
160, 2928261865, 0.16450798511505127, -0.5316559672355652, -0.13520127534866333, -0.819756031036377, 0.9999998807907104, -0.0003796238452196121, -0.00016608648002147675, -0.000147135928273201, 0.07335430383682251, 0.0028772354125976562, 0.03204059600830078, 8.803411483764648, 0.34512999653816223, 3.843794107437134, -5.220411777496338, -2.2839443683624268, -2.0233452320098877, -0.983154296875, -0.28857421875, -0.282470703125, 0, 
161, 2928270198, 0.16423562169075012, -0.531836211681366, -0.13496285676956177, -0.8197329640388489, 0.9999999403953552, -0.0003643091768026352, -0.0001784246414899826, -0.00011677667498588562, 0.07390028238296509, 0.002604544162750244, 0.03226304054260254, 8.86904525756836, 0.3121817111968994, 3.870245933532715, -5.0098114013671875, -2.453613042831421, -1.6058589220046997, -0.985595703125, -0.28857421875, -0.286865234375, 0, 
162, 2928278531, 0.1639779508113861, -0.5320494174957275, -0.13477031886577606, -0.8196778297424316, 0.9999999403953552, -0.0003381110727787018, -0.00020907633006572723, -0.00008238852024078369, 0.07452422380447388, 0.002535879611968994, 0.03212183713912964, 8.944110870361328, 0.30370303988456726, 3.8528575897216797, -4.649547100067139, -2.8751208782196045, -1.1329689025878906, -0.984619140625, -0.28955078125, -0.284423828125, 0, 
163, 2928286864, 0.16399045288562775, -0.5322325825691223, -0.1346750408411026, -0.8195719718933105, 0.9999999403953552, -0.00031970441341400146, -0.00022133253514766693, -0.00004809349775314331, 0.07508605718612671, 0.002535998821258545, 0.03212904930114746, 9.01150131225586, 0.3035564422607422, 3.8537986278533936, -4.396427154541016, -3.0436627864837646, -0.6613596081733704, -0.982666015625, -0.28857421875, -0.285400390625, 0, 
164, 2928295197, 0.1638227254152298, -0.5324760675430298, -0.13447564840316772, -0.8194801211357117, 0.9999999403953552, -0.00029643625020980835, -0.00024032406508922577, 0.00000473950058221817, 0.07530885934829712, 0.002785921096801758, 0.03210562467575073, 9.038372039794922, 0.3331117331981659, 3.850707769393921, -4.0764546394348145, -3.304825782775879, 0.06517543643712997, -0.985595703125, -0.28662109375, -0.287353515625, 0, 
165, 2928303530, 0.1638128012418747, -0.5327085256576538, -0.13429801166057587, -0.8193601965904236, 0.9999999403953552, -0.00026923418045043945, -0.00025079213082790375, 0.000044451095163822174, 0.07546406984329224, 0.0026633739471435547, 0.03200888633728027, 9.057108879089355, 0.31805920600891113, 3.83884859085083, -3.702383518218994, -3.448777198791504, 0.6112709045410156, -0.985107421875, -0.2880859375, -0.286865234375, 0, 
166, 2928311863, 0.16372323036193848, -0.5329664349555969, -0.13411754369735718, -0.8192398548126221, 0.9999999403953552, -0.0002381298691034317, -0.0002599358558654785, 0.00006511155515909195, 0.07574176788330078, 0.0025535225868225098, 0.03194218873977661, 9.090316772460938, 0.3050396740436554, 3.8310914039611816, -3.2746517658233643, -3.5745179653167725, 0.8953840136528015, -0.984619140625, -0.287109375, -0.284423828125, 0, 
167, 2928320196, 0.16371743381023407, -0.5332086682319641, -0.13393843173980713, -0.8191127777099609, 0.9999999403953552, -0.00022719241678714752, -0.00025832653045654297, 0.00006863754242658615, 0.07571393251419067, 0.0025306344032287598, 0.03178161382675171, 9.08700942993164, 0.30224481225013733, 3.811739206314087, -3.1242451667785645, -3.552387237548828, 0.9438717365264893, -0.985595703125, -0.28857421875, -0.283447265625, 0, 
168, 2928328529, 0.1636437177658081, -0.5334460139274597, -0.1337740421295166, -0.8189997673034668, 0.9999999403953552, -0.00021447241306304932, -0.00023968704044818878, 0.0000652289018034935, 0.07588332891464233, 0.0026538968086242676, 0.03142815828323364, 9.107385635375977, 0.3169277310371399, 3.7691891193389893, -2.9493255615234375, -3.29606556892395, 0.8969977498054504, -0.985595703125, -0.28662109375, -0.285888671875, 0, 
169, 2928336862, 0.1637844443321228, -0.5336571931838989, -0.13369151949882507, -0.8188475966453552, 0.9999999403953552, -0.00021989457309246063, -0.0002482365816831589, 0.00006807688623666763, 0.07650649547576904, 0.003407895565032959, 0.031875431537628174, 9.182162284851074, 0.40743929147720337, 3.822927236557007, -3.02388858795166, -3.413634777069092, 0.9361619353294373, -0.986083984375, -0.2861328125, -0.283935546875, 0, 
170, 2928345195, 0.163717582821846, -0.5338963270187378, -0.13350729644298553, -0.8187351226806641, 0.9999999403953552, -0.00022768042981624603, -0.00023679621517658234, 0.00008143018931150436, 0.07725554704666138, 0.004204809665679932, 0.03188091516494751, 9.272021293640137, 0.5029050707817078, 3.823697090148926, -3.1309561729431152, -3.256312370300293, 1.1197904348373413, -0.987060546875, -0.28564453125, -0.281982421875, 0, 
171, 2928353528, 0.1637697070837021, -0.5341385006904602, -0.13332012295722961, -0.8185973167419434, 0.9999999403953552, -0.00023751705884933472, -0.0002527087926864624, 0.00010598171502351761, 0.07789856195449829, 0.00478893518447876, 0.03224831819534302, 9.349143028259277, 0.5729638934135437, 3.8679349422454834, -3.2662250995635986, -3.47513484954834, 1.4574116468429565, -0.983642578125, -0.28369140625, -0.281982421875, 0, 
172, 2928361861, 0.16374726593494415, -0.5344001054763794, -0.1330898404121399, -0.8184685111045837, 0.9999999403953552, -0.00024351850152015686, -0.0002504643052816391, 0.00014784280210733414, 0.07880967855453491, 0.005221843719482422, 0.03198516368865967, 9.458630561828613, 0.6242303848266602, 3.8360774517059326, -3.3487536907196045, -3.4442691802978516, 2.0330660343170166, -0.986083984375, -0.287109375, -0.285400390625, 0, 
173, 2928370194, 0.16398610174655914, -0.5346159934997559, -0.1329347938299179, -0.818304717540741, 0.9999999403953552, -0.00025762058794498444, -0.00023003295063972473, 0.00017919670790433884, 0.07965296506881714, 0.004403412342071533, 0.031397104263305664, 9.55968189239502, 0.5257895588874817, 3.7657716274261475, -3.5426790714263916, -3.163306951522827, 2.4642302989959717, -0.986572265625, -0.2861328125, -0.283935546875, 0, 
174, 2928378527, 0.16401386260986328, -0.5347980856895447, -0.1326436549425125, -0.8182274103164673, 0.9999999403953552, -0.0002607051283121109, -0.00014120154082775116, 0.00020224880427122116, 0.07991522550582886, 0.003473818302154541, 0.03094238042831421, 9.590773582458496, 0.4141838848590851, 3.71208119392395, -3.585096836090088, -1.941738247871399, 2.7812318801879883, -0.986083984375, -0.2861328125, -0.281982421875, 0, 
175, 2928386860, 0.16415756940841675, -0.5349101424217224, -0.13236911594867706, -0.8181698322296143, 0.9999999403953552, -0.00024079903960227966, -0.00007028132677078247, 0.00020677130669355392, 0.07969295978546143, 0.001988828182220459, 0.030299246311187744, 9.56387996673584, 0.2354506105184555, 3.6353609561920166, -3.311357021331787, -0.9664763808250427, 2.843423366546631, -0.991455078125, -0.28369140625, -0.282470703125, 0, 
176, 2928395193, 0.16424719989299774, -0.5349724292755127, -0.13211354613304138, -0.8181525468826294, 0.9999999403953552, -0.00018716976046562195, -0.000008702278137207031, 0.0002077994868159294, 0.07922667264938354, 0.000879824161529541, 0.03030163049697876, 9.50763988494873, 0.10254960507154465, 3.6362688541412354, -2.5738718509674072, -0.11966970562934875, 2.857562303543091, -0.984619140625, -0.283203125, -0.280517578125, 0, 
177, 2928403526, 0.16444958746433258, -0.5349587798118591, -0.1318962574005127, -0.8181558847427368, 0.9999999403953552, -0.00011983700096607208, 0.00007013138383626938, 0.000209844671189785, 0.07935959100723267, 0.00027954578399658203, 0.030071139335632324, 9.523299217224121, 0.031258318573236465, 3.6093130111694336, -1.647943139076233, 0.9644144177436829, 2.8856871128082275, -0.989501953125, -0.2841796875, -0.281005859375, 0, 
178, 2928411859, 0.1646530032157898, -0.5348737835884094, -0.13172928988933563, -0.81819748878479, 0.9999999403953552, -0.00003757700324058533, 0.0001437487080693245, 0.0002242671325802803, 0.078732430934906, 0.000044226646423339844, 0.03014981746673584, 9.447840690612793, 0.0034503929782658815, 3.61924147605896, -0.5167415142059326, 1.9767653942108154, 3.084017515182495, -0.985107421875, -0.28271484375, -0.280517578125, 0, 
179, 2928420192, 0.16524700820446014, -0.5346797108650208, -0.13177590072155, -0.8181969523429871, 0.9999999403953552, 0.00005136895924806595, 0.00021702144294977188, 0.00024038460105657578, 0.07849621772766113, -0.00007170438766479492, 0.03012305498123169, 9.419048309326172, -0.010909169912338257, 3.6171774864196777, 0.7064022421836853, 2.9843788146972656, 3.3056581020355225, -0.986083984375, -0.2822265625, -0.283447265625, 0, 
180, 2928428525, 0.1656038910150528, -0.5344714522361755, -0.13168330490589142, -0.8182757496833801, 0.9999999403953552, 0.00012057553976774216, 0.00027250032871961594, 0.0002873120829463005, 0.07779443264007568, -0.000012099742889404297, 0.030247628688812256, 9.334672927856445, -0.003794814459979534, 3.6325154304504395, 1.6580991744995117, 3.7472987174987793, 3.9509830474853516, -0.987548828125, -0.28173828125, -0.282470703125, 0, 
181, 2928436858, 0.16614679992198944, -0.5342397689819336, -0.1316152960062027, -0.8183280229568481, 0.9999998807907104, 0.0001886943355202675, 0.0003040852025151253, 0.00035273749381303787, 0.07694411277770996, 0.00042897462844848633, 0.030756652355194092, 9.23261833190918, 0.04906162992119789, 3.6935875415802, 2.5948374271392822, 4.181639194488525, 4.850683212280273, -0.985107421875, -0.27978515625, -0.284912109375, 0, 
182, 2928445191, 0.16667842864990234, -0.5339962244033813, -0.13154999911785126, -0.818389356136322, 0.9999998211860657, 0.00024398881942033768, 0.00031036417931318283, 0.00041359011083841324, 0.07604604959487915, 0.0009126067161560059, 0.03120940923690796, 9.124771118164062, 0.10664884001016617, 3.7480921745300293, 3.355221748352051, 4.2679853439331055, 5.687500953674316, -0.987548828125, -0.28125, -0.285400390625, 0, 
183, 2928453524, 0.16733182966709137, -0.5337821245193481, -0.13146841526031494, -0.8184086084365845, 0.9999998211860657, 0.0002841455861926079, 0.00029425229877233505, 0.00047419872134923935, 0.075381338596344, 0.0013481974601745605, 0.031158268451690674, 9.045109748840332, 0.1586025506258011, 3.7417261600494385, 3.9074389934539795, 4.046422004699707, 6.520962238311768, -0.989501953125, -0.2763671875, -0.283447265625, 0, 
184, 2928461857, 0.1679793745279312, -0.5335599184036255, -0.13140763342380524, -0.8184306621551514, 0.9999997615814209, 0.00031107570976018906, 0.00028656143695116043, 0.0005150986835360527, 0.0746687650680542, 0.0018586516380310059, 0.0314866304397583, 8.959634780883789, 0.2195855677127838, 3.7810614109039307, 4.277770042419434, 3.9406607151031494, 7.083399295806885, -0.989501953125, -0.2783203125, -0.283935546875, 0, 
185, 2928470190, 0.16874274611473083, -0.5333568453788757, -0.13134989142417908, -0.8184154033660889, 0.9999997615814209, 0.0003117537125945091, 0.00027665775269269943, 0.00053368229418993, 0.07446557283401489, 0.0020707249641418457, 0.031656086444854736, 8.93532943725586, 0.24500253796577454, 3.8012170791625977, 4.287093162536621, 3.8044700622558594, 7.338953971862793, -0.989501953125, -0.27734375, -0.284423828125, 0, 
186, 2928478523, 0.1694062352180481, -0.5331559181213379, -0.13127107918262482, -0.8184219002723694, 0.9999997615814209, 0.0003032879903912544, 0.0002660052850842476, 0.0005430346354842186, 0.07427865266799927, 0.002233743667602539, 0.03186821937561035, 8.912940979003906, 0.2644649147987366, 3.8265762329101562, 4.1706767082214355, 3.657982587814331, 7.467562675476074, -0.991943359375, -0.27587890625, -0.285400390625, 0, 
187, 2928486856, 0.17021431028842926, -0.5329573750495911, -0.1312497854232788, -0.8183868527412415, 0.9999997615814209, 0.00029553938657045364, 0.0002600317820906639, 0.0005233632400631905, 0.07438671588897705, 0.0023933053016662598, 0.03166919946670532, 8.925944328308105, 0.28375619649887085, 3.802631378173828, 4.064120769500732, 3.575836658477783, 7.197049140930176, -0.991455078125, -0.27734375, -0.287841796875, 0, 
188, 2928495189, 0.17081548273563385, -0.5327739715576172, -0.1311958283185959, -0.8183897137641907, 0.9999998211860657, 0.0002873716875910759, 0.00023728888481855392, 0.0004813028499484062, 0.0747535228729248, 0.0024905800819396973, 0.031668663024902344, 8.970050811767578, 0.29576873779296875, 3.802363157272339, 3.9518022537231445, 3.2630867958068848, 6.618654251098633, -0.993408203125, -0.27099609375, -0.284423828125, 0, 
189, 2928503522, 0.17146937549114227, -0.5325964689254761, -0.13117843866348267, -0.8183712959289551, 0.9999998211860657, 0.00027554016560316086, 0.00023320410400629044, 0.0004234807565808296, 0.07533508539199829, 0.002747774124145508, 0.031625449657440186, 9.039852142333984, 0.32706791162490845, 3.797147512435913, 3.7891016006469727, 3.2069156169891357, 5.823512554168701, -0.991455078125, -0.2744140625, -0.286376953125, 0, 
190, 2928511855, 0.17195528745651245, -0.5323956608772278, -0.13115711510181427, -0.818403422832489, 0.9999998807907104, 0.0002514151856303215, 0.00024664681404829025, 0.0003618663176894188, 0.07564723491668701, 0.002635061740875244, 0.031325340270996094, 9.07717514038086, 0.31375932693481445, 3.761462450027466, 3.4573452472686768, 3.391772747039795, 4.976218223571777, -0.993408203125, -0.27197265625, -0.288330078125, 0, 
191, 2928520188, 0.17249391973018646, -0.5321820974349976, -0.1311585158109665, -0.8184288144111633, 0.9999998807907104, 0.00022404547780752182, 0.0002685999497771263, 0.0003050966188311577, 0.0760117769241333, 0.002791285514831543, 0.031568944454193115, 9.120890617370605, 0.33309462666511536, 3.790724515914917, 3.08096981048584, 3.693662643432617, 4.195548057556152, -0.991455078125, -0.271484375, -0.286376953125, 0, 
192, 2928528521, 0.17287702858448029, -0.5319480299949646, -0.13113407790660858, -0.8185039758682251, 0.9999998807907104, 0.00019420776516199112, 0.00028376001864671707, 0.0002675289288163185, 0.07609909772872925, 0.002613365650177002, 0.03198802471160889, 9.131308555603027, 0.31201714277267456, 3.8411002159118652, 2.6706552505493164, 3.9021365642547607, 3.678934097290039, -0.989013671875, -0.2744140625, -0.283935546875, 0, 
193, 2928536854, 0.17338576912879944, -0.5317209362983704, -0.13113632798194885, -0.8185436725616455, 0.9999999403953552, 0.00014508794993162155, 0.0002828119322657585, 0.00024919118732213974, 0.07596820592880249, 0.0026139020919799805, 0.031418800354003906, 9.115647315979004, 0.31210508942604065, 3.7727198600769043, 1.9951826333999634, 3.889098644256592, 3.4267618656158447, -0.993408203125, -0.26904296875, -0.284912109375, 0, 
194, 2928545187, 0.17368857562541962, -0.5315009355545044, -0.13103562593460083, -0.8186385035514832, 0.9999999403953552, 0.00008386466652154922, 0.0002854419872164726, 0.00024033430963754654, 0.07601374387741089, 0.002142190933227539, 0.03148233890533447, 9.120976448059082, 0.25516262650489807, 3.7806622982025146, 1.1532682180404663, 3.925266742706299, 3.304966449737549, -0.995361328125, -0.27392578125, -0.284423828125, 0, 
195, 2928553520, 0.17436476051807404, -0.5312643647193909, -0.13107962906360626, -0.8186412453651428, 0.9999999403953552, 0.000028750859200954437, 0.00027940142899751663, 0.00026252400130033493, 0.07527917623519897, 0.0018326640129089355, 0.03160041570663452, 9.032851219177246, 0.2176477015018463, 3.794739246368408, 0.3953685164451599, 3.8421990871429443, 3.6101083755493164, -0.989990234375, -0.26904296875, -0.287353515625, 0, 
196, 2928561853, 0.17464959621429443, -0.5310953855514526, -0.1308765709400177, -0.818722665309906, 0.9999999403953552, -0.000017076730728149414, 0.00025211554020643234, 0.0002887016162276268, 0.0751764178276062, 0.0016500353813171387, 0.03128683567047119, 9.020628929138184, 0.19531075656414032, 3.756875514984131, -0.234831303358078, 3.4669764041900635, 3.9700911045074463, -0.991943359375, -0.27392578125, -0.287353515625, 0, 
197, 2928570186, 0.1752120554447174, -0.5309337973594666, -0.13075263798236847, -0.8187270164489746, 0.9999999403953552, -0.00006725452840328217, 0.00023875106126070023, 0.00031856726855039597, 0.07471990585327148, 0.0015907883644104004, 0.03127187490463257, 8.965982437133789, 0.18806029856204987, 3.7547433376312256, -0.9248532056808472, 3.283194065093994, 4.380789279937744, -0.993896484375, -0.2666015625, -0.288330078125, 0, 
198, 2928578519, 0.17549192905426025, -0.5308103561401367, -0.13045461475849152, -0.8187946677207947, 0.9999999403953552, -0.00010439753532409668, 0.00022356119006872177, 0.0003427797928452492, 0.07487809658050537, 0.0011479854583740234, 0.031057417392730713, 8.984943389892578, 0.13428600132465363, 3.729067325592041, -1.435626745223999, 3.074310541152954, 4.713749885559082, -0.992431640625, -0.26953125, -0.288330078125, 0, 
199, 2928586852, 0.17570394277572632, -0.530758798122406, -0.13003134727478027, -0.8188499808311462, 0.9999998807907104, -0.00013737380504608154, 0.00019599217921495438, 0.0003659212961792946, 0.07472938299179077, 0.000497281551361084, 0.030983805656433105, 8.967222213745117, 0.056129202246665955, 3.7198567390441895, -1.889101266860962, 2.6951940059661865, 5.031980514526367, -0.995849609375, -0.2685546875, -0.286376953125, 0, 
200, 2928595185, 0.17597641050815582, -0.5307183265686035, -0.12967631220817566, -0.8188741207122803, 0.9999998807907104, -0.0001643747091293335, 0.00014165695756673813, 0.0003850990906357765, 0.07468652725219727, -0.00029844045639038086, 0.031011104583740234, 8.962162971496582, -0.040152657777071, 3.722830295562744, -2.2604050636291504, 1.9480011463165283, 5.2957048416137695, -0.994384765625, -0.27001953125, -0.286376953125, 0, 
201, 2928603518, 0.1763642132282257, -0.5307563543319702, -0.1293310523033142, -0.8188203573226929, 0.9999998807907104, -0.0002010483294725418, 0.00006959866732358932, 0.0004015890881419182, 0.07477116584777832, -0.0009725689888000488, 0.030851662158966064, 8.972588539123535, -0.12110443413257599, 3.7029542922973633, -2.764723777770996, 0.957088828086853, 5.522468090057373, -0.994873046875, -0.26708984375, -0.288818359375, 0, 
202, 2928611851, 0.17663486301898956, -0.530864953994751, -0.12894661724567413, -0.8187522292137146, 0.9999998807907104, -0.00020417384803295135, -0.000024374574422836304, 0.00043442752212285995, 0.075100839138031, -0.0011079907417297363, 0.030911743640899658, 9.012493133544922, -0.13778673112392426, 3.7093024253845215, -2.807704210281372, -0.3351878523826599, 5.974046230316162, -0.995849609375, -0.2626953125, -0.286865234375, 0, 
203, 2928620184, 0.17697866261005402, -0.5310613512992859, -0.12850569188594818, -0.8186200261116028, 0.9999998807907104, -0.00021990202367305756, -0.00008584372699260712, 0.0004917318001389503, 0.07588046789169312, -0.0008462071418762207, 0.030028581619262695, 9.106279373168945, -0.10682784020900726, 3.6027677059173584, -3.0239908695220947, -1.1804832220077515, 6.762067794799805, -0.996337890625, -0.263671875, -0.288818359375, 0, 
204, 2928628517, 0.17727091908454895, -0.531270444393158, -0.1280292421579361, -0.8184958100318909, 0.9999998211860657, -0.000279134139418602, -0.00011722743511199951, 0.0005233911797404289, 0.0763627290725708, -0.0007992386817932129, 0.03066772222518921, 9.164268493652344, -0.10160914063453674, 3.679197072982788, -3.8385236263275146, -1.6120574474334717, 7.197432994842529, -0.999267578125, -0.26318359375, -0.287841796875, 0, 
205, 2928636850, 0.1778554618358612, -0.5314996242523193, -0.1276586800813675, -0.8182781338691711, 0.9999998211860657, -0.0003367457538843155, -0.00014354102313518524, 0.0005322331562638283, 0.07660096883773804, -0.0006504654884338379, 0.030537307262420654, 9.192965507507324, -0.08418484032154083, 3.663276195526123, -4.630772113800049, -1.9739099740982056, 7.319025039672852, -0.99462890625, -0.2607421875, -0.29150390625, 0, 
206, 2928645183, 0.17809413373470306, -0.5317803025245667, -0.12711583077907562, -0.8181284070014954, 0.9999997615814209, -0.00037189386785030365, -0.0001841522753238678, 0.0005282042548060417, 0.07705867290496826, -0.00035130977630615234, 0.030242562294006348, 9.24804973602295, -0.04833519086241722, 3.627549648284912, -5.114113807678223, -2.5323774814605713, 7.263621807098389, -0.994873046875, -0.2587890625, -0.286376953125, 0, 
207, 2928653516, 0.1784573346376419, -0.5321122407913208, -0.12658478319644928, -0.8179155588150024, 0.9999997615814209, -0.0003854837268590927, -0.00021648220717906952, 0.0005425689741969109, 0.07758194208145142, 0.0004004836082458496, 0.03004634380340576, 9.310992240905762, 0.04178965464234352, 3.6037614345550537, -5.300994396209717, -2.9769632816314697, 7.46115779876709, -0.99609375, -0.25927734375, -0.289794921875, 0, 
208, 2928661849, 0.17869295179843903, -0.5324594974517822, -0.1260097771883011, -0.8177270293235779, 0.9999997019767761, -0.0004072263836860657, -0.0002539120614528656, 0.0005578668788075447, 0.07784360647201538, 0.00032824277877807617, 0.02977365255355835, 9.34252643585205, 0.03278690576553345, 3.5706467628479004, -5.599989891052246, -3.4916820526123047, 7.671527862548828, -0.99658203125, -0.25830078125, -0.289794921875, 0, 
209, 2928670182, 0.17908331751823425, -0.5328647494316101, -0.12547291815280914, -0.8174600601196289, 0.9999997019767761, -0.0004305001348257065, -0.00029717013239860535, 0.0005644774064421654, 0.07810467481613159, -0.0006949901580810547, 0.030063748359680176, 9.373966217041016, -0.09028951078653336, 3.6049540042877197, -5.920039176940918, -4.086546421051025, 7.762433052062988, -0.997314453125, -0.25732421875, -0.287353515625, 0, 
210, 2928678515, 0.17929892241954803, -0.5332853198051453, -0.12483147531747818, -0.8172366619110107, 0.9999996423721313, -0.00048116035759449005, -0.00032269395887851715, 0.0005921153351664543, 0.07773482799530029, 0.0008879303932189941, 0.030594289302825928, 9.32979679107666, 0.09927445650100708, 3.668504476547241, -6.616695404052734, -4.437539100646973, 8.142496109008789, -0.99951171875, -0.25537109375, -0.289306640625, 0, 
211, 2928686848, 0.1797039806842804, -0.5337570905685425, -0.12422715872526169, -0.8169317841529846, 0.9999996423721313, -0.0005285516381263733, -0.00035316310822963715, 0.000607549212872982, 0.07851266860961914, 0.00016760826110839844, 0.029346883296966553, 9.423154830932617, 0.01251225546002388, 3.5184414386749268, -7.268397808074951, -4.856535911560059, 8.354735374450684, -1.00244140625, -0.255126953125, -0.288818359375, 0, 
212, 2928695181, 0.17990612983703613, -0.5342328548431396, -0.12350807338953018, -0.8166852593421936, 0.9999995827674866, -0.0005589965730905533, -0.0003676656633615494, 0.0006333561614155769, 0.07811993360519409, -0.0017743706703186035, 0.02991706132888794, 9.375929832458496, -0.22074304521083832, 3.586684226989746, -7.687063694000244, -5.05596923828125, 8.709623336791992, -0.99951171875, -0.25390625, -0.290283203125, 0, 
213, 2928703514, 0.1803305298089981, -0.534751832485199, -0.12284553796052933, -0.8163520097732544, 0.9999995231628418, -0.0005775913596153259, -0.0003892257809638977, 0.0006629461422562599, 0.07822829484939575, -0.0009644031524658203, 0.02994978427886963, 9.389090538024902, -0.12402557581663132, 3.590398073196411, -7.942770004272461, -5.352453231811523, 9.11652946472168, -0.999755859375, -0.25537109375, -0.285888671875, 0, 
214, 2928711847, 0.1805424690246582, -0.5352698564529419, -0.1220742017030716, -0.8160812258720398, 0.9999995231628418, -0.000601423904299736, -0.00040407851338386536, 0.0006786631420254707, 0.0783812403678894, -0.0009775757789611816, 0.029282689094543457, 9.407459259033203, -0.12579233944416046, 3.510197639465332, -8.27050495147705, -5.55670166015625, 9.332663536071777, -1.00048828125, -0.24951171875, -0.288330078125, 0, 
215, 2928720180, 0.18085646629333496, -0.5358200669288635, -0.12129766494035721, -0.8157663345336914, 0.9999995231628418, -0.0006266310811042786, -0.00039256736636161804, 0.0006806375458836555, 0.07788145542144775, -0.0019775032997131348, 0.02956455945968628, 9.347380638122559, -0.24592150747776031, 3.5440568923950195, -8.617141723632812, -5.3984055519104, 9.35981273651123, -0.998291015625, -0.25, -0.283935546875, 0, 
216, 2928728513, 0.18105094134807587, -0.5363444685935974, -0.12049336731433868, -0.8154978156089783, 0.999999463558197, -0.0006394032388925552, -0.0004041548818349838, 0.0006821649149060249, 0.07747972011566162, -0.0028628110885620117, 0.029118716716766357, 9.299118041992188, -0.3521733283996582, 3.490384101867676, -8.792779922485352, -5.557751655578613, 9.380818367004395, -1, -0.24755859375, -0.286376953125, 0, 
217, 2928736846, 0.1813107430934906, -0.5369239449501038, -0.11965179443359375, -0.8151825666427612, 0.999999463558197, -0.0006508566439151764, -0.0004061628133058548, 0.0007004467770457268, 0.07688558101654053, -0.003359556198120117, 0.028621017932891846, 9.227742195129395, -0.41180965304374695, 3.430671215057373, -8.950281143188477, -5.585363864898682, 9.632220268249512, -1, -0.2431640625, -0.285400390625, 0, 
218, 2928745179, 0.18152259290218353, -0.5374553799629211, -0.11880535632371902, -0.8149089217185974, 0.999999463558197, -0.0006651151925325394, -0.0004026927053928375, 0.0007204944267868996, 0.0762832760810852, -0.0027123689651489258, 0.028151094913482666, 9.15549087524414, -0.3344087600708008, 3.3743298053741455, -9.146356582641602, -5.537644386291504, 9.907906532287598, -0.99951171875, -0.2431640625, -0.286865234375, 0, 
219, 2928753512, 0.1818646788597107, -0.5380480885505676, -0.11794427037239075, -0.8145666122436523, 0.9999994039535522, -0.0006580483168363571, -0.0004136711359024048, 0.0007653916254639626, 0.07549625635147095, -0.002595961093902588, 0.02844083309173584, 9.061083793640137, -0.3207238018512726, 3.409073829650879, -9.049179077148438, -5.6886162757873535, 10.525314331054688, -1.001953125, -0.24072265625, -0.285400390625, 0, 
220, 2928761845, 0.1821870356798172, -0.5386030673980713, -0.11709532886743546, -0.8142502903938293, 0.9999994039535522, -0.0006069689989089966, -0.0004309471696615219, 0.0008222321048378944, 0.0751308798789978, -0.002224743366241455, 0.028484880924224854, 9.017309188842773, -0.2764037251472473, 3.4143009185791016, -8.346759796142578, -5.926187038421631, 11.306957244873047, -1.00634765625, -0.242431640625, -0.285400390625, 0, 
221, 2928770178, 0.1825965791940689, -0.5392271876335144, -0.1162274107336998, -0.8138697147369385, 0.9999994039535522, -0.0005504544824361801, -0.00044688954949378967, 0.0008654939010739326, 0.0749707818031311, -0.0023006200790405273, 0.028389036655426025, 8.998132705688477, -0.28574633598327637, 3.402646064758301, -7.569596290588379, -6.145419120788574, 11.901873588562012, -1.0048828125, -0.23876953125, -0.284423828125, 0, 
222, 2928778511, 0.18301481008529663, -0.5398133993148804, -0.11546554416418076, -0.8134955763816833, 0.9999994039535522, -0.0004833769053220749, -0.0004920940846204758, 0.0008673416450619698, 0.07492232322692871, -0.002680957317352295, 0.028844118118286133, 8.992452621459961, -0.3311510980129242, 3.456874132156372, -6.647176265716553, -6.767051696777344, 11.92728328704834, -1.0048828125, -0.2353515625, -0.285400390625, 0, 
223, 2928786844, 0.18353526294231415, -0.5405082702636719, -0.11474164575338364, -0.8130189776420593, 0.9999993443489075, -0.00042739883065223694, -0.0005660597234964371, 0.0008802833035588264, 0.07544058561325073, -0.004194080829620361, 0.028680026531219482, 9.05473804473877, -0.5127758383750916, 3.436384677886963, -5.877392292022705, -7.7841925621032715, 12.105252265930176, -1.0078125, -0.237548828125, -0.285400390625, 0, 
224, 2928795177, 0.1840224713087082, -0.5411655306816101, -0.11410662531852722, -0.8125607967376709, 0.9999993443489075, -0.000346185639500618, -0.0006102137267589569, 0.0008783722296357155, 0.07555806636810303, -0.005270540714263916, 0.02891671657562256, 9.06887435913086, -0.6415683031082153, 3.4644458293914795, -4.760585784912109, -8.391378402709961, 12.078970909118652, -1.005859375, -0.23193359375, -0.283447265625, 0, 
225, 2928803510, 0.18440786004066467, -0.5419447422027588, -0.11338721215724945, -0.8120549321174622, 0.9999993443489075, -0.00026774778962135315, -0.0006681177765130997, 0.0008821664378046989, 0.07592052221298218, -0.006330728530883789, 0.02870410680770874, 9.112435340881348, -0.7685749530792236, 3.4384102821350098, -3.6819450855255127, -9.18764877319336, 12.131147384643555, -1.00732421875, -0.23193359375, -0.281494140625, 0, 
226, 2928811843, 0.1849776655435562, -0.542676568031311, -0.11287710070610046, -0.8115074634552002, 0.9999992847442627, -0.00020331703126430511, -0.0007327906787395477, 0.0009024320170283318, 0.07565397024154663, -0.006581127643585205, 0.029021739959716797, 9.080684661865234, -0.7987192273139954, 3.475893974304199, -2.79592227935791, -10.07699966430664, 12.409829139709473, -1.01171875, -0.231201171875, -0.281982421875, 0, 
227, 2928820176, 0.1857312172651291, -0.5434771180152893, -0.11242665350437164, -0.8108618259429932, 0.9999992847442627, -0.00015364401042461395, -0.0007607154548168182, 0.0009256461635231972, 0.07557392120361328, -0.005983412265777588, 0.028728902339935303, 9.071187019348145, -0.726970374584198, 3.440589427947998, -2.112841844558716, -10.46100902557373, 12.729061126708984, -1.014892578125, -0.230712890625, -0.277099609375, 0, 
228, 2928828509, 0.18639227747917175, -0.5442144870758057, -0.1119627058506012, -0.8102795481681824, 0.9999992251396179, -0.00011285021901130676, -0.0007541626691818237, 0.0009585795924067497, 0.07476168870925903, -0.005489230155944824, 0.028963983058929443, 8.973733901977539, -0.6676651239395142, 3.469022512435913, -1.5518643856048584, -10.370898246765137, 13.18194580078125, -1.01123046875, -0.2255859375, -0.277587890625, 0, 
229, 2928836842, 0.18721596896648407, -0.5449813008308411, -0.11154159903526306, -0.8096321821212769, 0.9999992847442627, -0.00007635727524757385, -0.0007292032241821289, 0.0009612767025828362, 0.07371681928634644, -0.004724621772766113, 0.028865158557891846, 8.848346710205078, -0.5757383108139038, 3.4574687480926514, -1.05003023147583, -10.027667045593262, 13.219037055969238, -1.016357421875, -0.224853515625, -0.273681640625, 0, 
230, 2928845175, 0.1879393458366394, -0.5456674695014954, -0.1111365258693695, -0.8090579509735107, 0.9999992847442627, -0.000022450461983680725, -0.0007119420915842056, 0.0009696884080767632, 0.0732431411743164, -0.0045320987701416016, 0.028515279293060303, 8.791449546813965, -0.5525493025779724, 3.415645122528076, -0.3087284564971924, -9.790301322937012, 13.334710121154785, -1.016357421875, -0.223876953125, -0.274658203125, 0, 
231, 2928853508, 0.18879877030849457, -0.5464130640029907, -0.11075383424758911, -0.8084067702293396, 0.9999992847442627, 0.000017032958567142487, -0.0007170047610998154, 0.0009802104905247688, 0.07233977317810059, -0.004446566104888916, 0.028655707836151123, 8.683037757873535, -0.5419753789901733, 3.432668924331665, 0.2342294454574585, -9.8599214553833, 13.47940444946289, -1.014892578125, -0.220458984375, -0.271728515625, 0, 
232, 2928861841, 0.1895698755979538, -0.5471024513244629, -0.11043056100606918, -0.8078041076660156, 0.9999992847442627, 0.00007248204201459885, -0.0007399823516607285, 0.0009691128507256508, 0.07233721017837524, -0.004319310188293457, 0.028412222862243652, 8.68282413482666, -0.5264939665794373, 3.403223991394043, 0.9967396855354309, -10.175896644592285, 13.326794624328613, -1.018310546875, -0.218017578125, -0.270751953125, 0, 
233, 2928870174, 0.19036373496055603, -0.5478925704956055, -0.11007928848266602, -0.8071295022964478, 0.9999992251396179, 0.00010108482092618942, -0.0007818154990673065, 0.0009582573547959328, 0.07232969999313354, -0.004421889781951904, 0.028613150119781494, 8.682095527648926, -0.5386714339256287, 3.426938533782959, 1.390071988105774, -10.751166343688965, 13.17751407623291, -1.016357421875, -0.21533203125, -0.267333984375, 0, 
234, 2928878507, 0.19114114344120026, -0.5486382246017456, -0.10982082039117813, -0.8064743280410767, 0.9999992251396179, 0.00012354739010334015, -0.0008256025612354279, 0.0009546522051095963, 0.07269388437271118, -0.004534900188446045, 0.029033422470092773, 8.725969314575195, -0.5521137714385986, 3.4770102500915527, 1.6989670991897583, -11.353307723999023, 13.12794017791748, -1.018798828125, -0.216552734375, -0.266357421875, 0, 
235, 2928886840, 0.19195960462093353, -0.5494990944862366, -0.10953148454427719, -0.805732786655426, 0.9999991655349731, 0.00010882411152124405, -0.0008826944977045059, 0.0009430861100554466, 0.07327300310134888, -0.0043582916259765625, 0.029243648052215576, 8.795692443847656, -0.5308738350868225, 3.501725196838379, 1.4964991807937622, -12.138408660888672, 12.968886375427246, -1.019775390625, -0.212158203125, -0.265869140625, 0, 
236, 2928895173, 0.19269590079784393, -0.550310492515564, -0.10928893834352493, -0.8050359487533569, 0.9999991655349731, 0.00010606180876493454, -0.0009087603539228439, 0.0009276391938328743, 0.07409173250198364, -0.0038518309593200684, 0.02861553430557251, 8.894051551818848, -0.47012847661972046, 3.425964593887329, 1.4585132598876953, -12.496854782104492, 12.756467819213867, -1.018310546875, -0.212158203125, -0.265380859375, 0, 
237, 2928903506, 0.19346460700035095, -0.5511998534202576, -0.10898759216070175, -0.804283618927002, 0.9999991655349731, 0.00009682495146989822, -0.0009170453995466232, 0.0009251842275261879, 0.07514333724975586, -0.0035112500190734863, 0.02862638235092163, 9.020304679870605, -0.42934247851371765, 3.427110433578491, 1.331492304801941, -12.610787391662598, 12.722708702087402, -1.020263671875, -0.212158203125, -0.263427734375, 0, 
238, 2928911839, 0.194166362285614, -0.5520007014274597, -0.10874636471271515, -0.8035975694656372, 0.9999991655349731, 0.00008907821029424667, -0.000898268073797226, 0.0008956668898463249, 0.07564985752105713, -0.003387451171875, 0.02863103151321411, 9.081050872802734, -0.41429904103279114, 3.427781105041504, 1.2249624729156494, -12.352568626403809, 12.316798210144043, -1.022705078125, -0.207763671875, -0.260986328125, 0, 
239, 2928920172, 0.1948278695344925, -0.5528438687324524, -0.10839089751243591, -0.8029054403305054, 0.9999992251396179, 0.00006606336683034897, -0.0008516609668731689, 0.0008795736357569695, 0.07663506269454956, -0.0033205747604370117, 0.02828925848007202, 9.199089050292969, -0.40628138184547424, 3.387108564376831, 0.9084728956222534, -11.711648941040039, 12.095490455627441, -1.026123046875, -0.206298828125, -0.259521484375, 0, 
240, 2928928505, 0.19547879695892334, -0.5535848736763, -0.10811026394367218, -0.802274227142334, 0.9999992847442627, 0.00003525521606206894, -0.0008174553513526917, 0.0008591236546635628, 0.07694941759109497, -0.0038824081420898438, 0.028515934944152832, 9.236680030822754, -0.4736829400062561, 3.414552688598633, 0.4848135709762573, -11.241271018981934, 11.814273834228516, -1.024169921875, -0.206298828125, -0.259033203125, 0, 
241, 2928936838, 0.19607484340667725, -0.5544067025184631, -0.10770350694656372, -0.8016157150268555, 0.9999992847442627, -0.000012695789337158203, -0.0008117370307445526, 0.0008468320593237877, 0.07770568132400513, -0.003953158855438232, 0.028775155544281006, 9.327442169189453, -0.48230859637260437, 3.4456098079681396, -0.17458665370941162, -11.16263484954834, 11.645245552062988, -1.023193359375, -0.20361328125, -0.254638671875, 0, 
242, 2928945171, 0.19664840400218964, -0.5551332235336304, -0.1073346734046936, -0.8010216355323792, 0.9999993443489075, -0.00007886253297328949, -0.0007762089371681213, 0.0008369060233235359, 0.07834750413894653, -0.0038776397705078125, 0.02893507480621338, 9.404382705688477, -0.4734918177127838, 3.4650003910064697, -1.0844812393188477, -10.674068450927734, 11.508746147155762, -1.024169921875, -0.199951171875, -0.254638671875, 0, 
243, 2928953504, 0.19735252857208252, -0.5558716654777527, -0.10694463551044464, -0.8003883957862854, 0.9999994039535522, -0.00014845281839370728, -0.0007107425481081009, 0.000824647955596447, 0.07847374677658081, -0.003485441207885742, 0.028514087200164795, 9.41933536529541, -0.4266442358493805, 3.4149889945983887, -2.041454792022705, -9.773805618286133, 11.340180397033691, -1.026611328125, -0.201904296875, -0.255126953125, 0, 
244, 2928961837, 0.19783706963062286, -0.5565016269683838, -0.1064409390091896, -0.7998980283737183, 0.999999463558197, -0.00022803433239459991, -0.0006238147616386414, 0.0008098455145955086, 0.07833826541900635, -0.0033599138259887695, 0.028249919414520264, 9.402763366699219, -0.41163572669029236, 3.3841373920440674, -3.1358227729797363, -8.578413009643555, 11.136621475219727, -1.026611328125, -0.198974609375, -0.254638671875, 0, 
245, 2928970170, 0.1980375349521637, -0.5571934580802917, -0.1056232899427414, -0.7994750142097473, 0.999999463558197, -0.00030733272433280945, -0.0005519073456525803, 0.0007972652092576027, 0.07836800813674927, -0.0035170912742614746, 0.028195679187774658, 9.406075477600098, -0.4306747019290924, 3.378251314163208, -4.226299285888672, -7.589576721191406, 10.96362590789795, -1.028564453125, -0.196533203125, -0.251220703125, 0, 
246, 2928978503, 0.19843174517154694, -0.557739794254303, -0.104983851313591, -0.7990806102752686, 0.9999995231628418, -0.00038012489676475525, -0.0004862602800130844, 0.0007849866524338722, 0.078616201877594, -0.004051685333251953, 0.02829599380493164, 9.43557071685791, -0.49479880928993225, 3.390946865081787, -5.227302551269531, -6.686827182769775, 10.794774055480957, -1.027099609375, -0.19287109375, -0.249267578125, 0, 
247, 2928986836, 0.19874785840511322, -0.5583335161209106, -0.10419193655252457, -0.7986907958984375, 0.9999995231628418, -0.00045520253479480743, -0.00043234042823314667, 0.0007653599604964256, 0.07887434959411621, -0.0046846866607666016, 0.028124868869781494, 9.466329574584961, -0.5709972977638245, 3.370753765106201, -6.259735107421875, -5.945346355438232, 10.524877548217773, -1.025146484375, -0.1923828125, -0.246826171875, 0, 
248, 2928995169, 0.19904805719852448, -0.5588011741638184, -0.10343338549137115, -0.7983875870704651, 0.9999995231628418, -0.0005208458751440048, -0.0003585200756788254, 0.0007500620558857918, 0.07920283079147339, -0.00519406795501709, 0.028101742267608643, 9.505452156066895, -0.6321174502372742, 3.368642807006836, -7.162433624267578, -4.930203437805176, 10.314509391784668, -1.029052734375, -0.190185546875, -0.248779296875, 0, 
249, 2929003502, 0.1994188129901886, -0.5592665076255798, -0.10262462496757507, -0.7980735301971436, 0.9999995231628418, -0.0005921991541981697, -0.0002663126215338707, 0.0007262993603944778, 0.07944726943969727, -0.005444705486297607, 0.027889668941497803, 9.534470558166504, -0.6623396873474121, 3.3439526557922363, -8.14365005493164, -3.662208318710327, 9.9877347946167, -1.027587890625, -0.19189453125, -0.248291015625, 0, 
250, 2929011835, 0.19961008429527283, -0.5596275925636292, -0.10174229741096497, -0.7978855967521667, 0.9999995231628418, -0.0006707143038511276, -0.00019525177776813507, 0.0006983699277043343, 0.07977253198623657, -0.005788564682006836, 0.028187870979309082, 9.573262214660645, -0.7036810517311096, 3.3803250789642334, -9.223353385925293, -2.6850125789642334, 9.603660583496094, -1.032958984375, -0.187744140625, -0.247802734375, 0, 
251, 2929020168, 0.19967156648635864, -0.5600393414497375, -0.1006508469581604, -0.7977197766304016, 0.999999463558197, -0.0007519610226154327, -0.00013180263340473175, 0.0006947079673409462, 0.08075982332229614, -0.006095290184020996, 0.028186559677124023, 9.69150161743164, -0.7408048510551453, 3.3806798458099365, -10.340621948242188, -1.8124892711639404, 9.553304672241211, -1.030029296875, -0.186279296875, -0.250244140625, 0, 
252, 2929028501, 0.19977955520153046, -0.5603132247924805, -0.0995955839753151, -0.7976328134536743, 0.9999994039535522, -0.0008477643132209778, -0.000042980536818504333, 0.0006995489820837975, 0.08139067888259888, -0.006236374378204346, 0.028672218322753906, 9.766891479492188, -0.7582406401634216, 3.4397361278533936, -11.658064842224121, -0.5910485982894897, 9.61987590789795, -1.032470703125, -0.182861328125, -0.247314453125, 0, 
253, 2929036834, 0.19977153837680817, -0.5606154203414917, -0.09829280525445938, -0.7975839972496033, 0.9999992847442627, -0.0009591151028871536, 0.00005793105810880661, 0.0007198723033070564, 0.08146756887435913, -0.005553901195526123, 0.02906644344329834, 9.775819778442383, -0.676798939704895, 3.488037109375, -13.189311027526855, 0.7966414093971252, 9.899353981018066, -1.031005859375, -0.180908203125, -0.248291015625, 0, 
254, 2929045167, 0.19977472722530365, -0.5607672929763794, -0.09699500352144241, -0.7976353168487549, 0.9999991655349731, -0.0010885447263717651, 0.00017023924738168716, 0.0007122764363884926, 0.08133751153945923, -0.005040228366851807, 0.02930760383605957, 9.759854316711426, -0.6156782507896423, 3.5180561542510986, -14.969167709350586, 2.3410518169403076, 9.794898986816406, -1.031982421875, -0.180908203125, -0.251220703125, 0, 
255, 2929053500, 0.19980399310588837, -0.5609308481216431, -0.09557070583105087, -0.797684907913208, 0.9999989867210388, -0.0012234412133693695, 0.00026929471641778946, 0.0007078433409333229, 0.08089643716812134, -0.004794657230377197, 0.029760420322418213, 9.706596374511719, -0.586547315120697, 3.5732855796813965, -16.824201583862305, 3.7032175064086914, 9.73393726348877, -1.036376953125, -0.180908203125, -0.252685546875, 0, 
256, 2929061833, 0.199649378657341, -0.5609627962112427, -0.09401921182870865, -0.7978854179382324, 0.9999987483024597, -0.0013690395280718803, 0.00038540177047252655, 0.0006873849779367447, 0.0807105302810669, -0.004624783992767334, 0.02995699644088745, 9.68387508392334, -0.5666141510009766, 3.597960948944092, -18.826404571533203, 5.299868583679199, 9.45260238647461, -1.034912109375, -0.180419921875, -0.252685546875, 0, 
257, 2929070166, 0.19928178191184998, -0.5610352158546448, -0.09217926859855652, -0.7981412410736084, 0.9999984502792358, -0.001553758978843689, 0.00048392172902822495, 0.0006619775667786598, 0.08009517192840576, -0.00470888614654541, 0.030076324939727783, 9.609671592712402, -0.5771112442016602, 3.613085985183716, -21.3665828704834, 6.654670238494873, 9.1032133102417, -1.031494140625, -0.174560546875, -0.254638671875, 0, 
258, 2929078499, 0.19888074696063995, -0.5609925985336304, -0.09031769633293152, -0.7984840869903564, 0.9999980926513672, -0.0017527583986520767, 0.0005637640133500099, 0.0006294595077633858, 0.0791100263595581, -0.004880011081695557, 0.03053462505340576, 9.491146087646484, -0.5980209112167358, 3.6686182022094727, -24.103137969970703, 7.752626895904541, 8.656041145324707, -1.033447265625, -0.177001953125, -0.254638671875, 0, 
259, 2929086832, 0.1982949674129486, -0.56101393699646, -0.0881785973906517, -0.7988536953926086, 0.9999976754188538, -0.0019595660269260406, 0.0006309458985924721, 0.0006150761619210243, 0.07833284139633179, -0.005901634693145752, 0.030918896198272705, 9.397534370422363, -0.7212880849838257, 3.7149527072906494, -26.947063446044922, 8.676482200622559, 8.45824909210205, -1.0341796875, -0.173583984375, -0.259521484375, 0, 
260, 2929095165, 0.1976461559534073, -0.5609114766120911, -0.085980124771595, -0.7993259429931641, 0.9999972581863403, -0.0021597519516944885, 0.0007293084636330605, 0.0005897628143429756, 0.0774698257446289, -0.005550682544708252, 0.031180858612060547, 9.293624877929688, -0.6796736717224121, 3.7471823692321777, -29.69993782043457, 10.029122352600098, 8.110152244567871, -1.03515625, -0.169677734375, -0.264404296875, 0, 
261, 2929103498, 0.19695669412612915, -0.5608196258544922, -0.08360235393047333, -0.7998126745223999, 0.9999966621398926, -0.0023740939795970917, 0.0008382657542824745, 0.0005678264424204826, 0.07691693305969238, -0.005314946174621582, 0.03107362985610962, 9.226901054382324, -0.6519480347633362, 3.7352089881896973, -32.64748001098633, 11.527456283569336, 7.808495998382568, -1.037109375, -0.172119140625, -0.262939453125, 0, 
262, 2929111831, 0.1960361897945404, -0.560627281665802, -0.0810479149222374, -0.8004364371299744, 0.9999960660934448, -0.0025911331176757812, 0.000933879055082798, 0.0005348892882466316, 0.07580715417861938, -0.0055640339851379395, 0.031428515911102295, 9.093339920043945, -0.6823463439941406, 3.778320550918579, -35.63211441040039, 12.842291831970215, 7.355560779571533, -1.0341796875, -0.169189453125, -0.268310546875, 0, 
263, 2929120164, 0.1949184387922287, -0.5604828596115112, -0.07823529839515686, -0.8010900020599365, 0.9999953508377075, -0.0028358716517686844, 0.0010095210745930672, 0.0004850374534726143, 0.07502353191375732, -0.005784511566162109, 0.03152662515640259, 8.999021530151367, -0.7092741131782532, 3.790452003479004, -38.997657775878906, 13.882488250732422, 6.6700215339660645, -1.03662109375, -0.167236328125, -0.272216796875, 0, 
264, 2929128497, 0.19365200400352478, -0.5602409839630127, -0.07534999400377274, -0.8018426299095154, 0.999994695186615, -0.0030499212443828583, 0.001083151437342167, 0.000414491631090641, 0.07474899291992188, -0.006298720836639404, 0.031208813190460205, 8.965866088867188, -0.7710133194923401, 3.752596139907837, -41.941184997558594, 14.89502239227295, 5.699906826019287, -1.034423828125, -0.164794921875, -0.273681640625, 0, 
265, 2929136830, 0.19207999110221863, -0.5600281357765198, -0.07218457758426666, -0.8026601672172546, 0.9999939799308777, -0.0032550524920225143, 0.0011722845956683159, 0.00033026281744241714, 0.07455998659133911, -0.006726205348968506, 0.031039178371429443, 8.942920684814453, -0.8222535252571106, 3.7326881885528564, -44.76206970214844, 16.12074851989746, 4.54163122177124, -1.031982421875, -0.161865234375, -0.279541015625, 0, 
266, 2929145163, 0.19040602445602417, -0.5596961975097656, -0.06904657930135727, -0.8035660982131958, 0.9999931454658508, -0.0034741703420877457, 0.0012601511552929878, 0.00019329320639371872, 0.07406806945800781, -0.009050846099853516, 0.02975064516067505, 8.883807182312012, -1.1002895832061768, 3.577636957168579, -47.775291442871094, 17.32905387878418, 2.6580848693847656, -1.034912109375, -0.162353515625, -0.282958984375, 0, 
267, 2929153496, 0.18840718269348145, -0.5594075918197632, -0.06570150703191757, -0.8045180439949036, 0.9999923706054688, -0.0036847740411758423, 0.0013143951073288918, 0.00004020426422357559, 0.07301825284957886, -0.010320723056793213, 0.029225826263427734, 8.75787353515625, -1.2518305778503418, 3.5141794681549072, -50.67143249511719, 18.074996948242188, 0.552871823310852, -1.032470703125, -0.158447265625, -0.285400390625, 0, 
268, 2929161829, 0.18628637492656708, -0.559039294719696, -0.06243785098195076, -0.8055273294448853, 0.999991774559021, -0.0038244035094976425, 0.0013410812243819237, -0.00011723674833774567, 0.07257121801376343, -0.011699020862579346, 0.02710944414138794, 8.704689979553223, -1.4153764247894287, 3.25956130027771, -52.591575622558594, 18.441980361938477, -1.6121901273727417, -1.034423828125, -0.160400390625, -0.293212890625, 0, 
269, 2929170162, 0.1838013082742691, -0.5587509870529175, -0.059006497263908386, -0.806555986404419, 0.9999914169311523, -0.003911083564162254, 0.001328389160335064, -0.00026900507509708405, 0.07169830799102783, -0.011941730976104736, 0.026318669319152832, 8.600329399108887, -1.4431129693984985, 3.164177656173706, -53.783565521240234, 18.267444610595703, -3.6992437839508057, -1.0341796875, -0.155517578125, -0.29541015625, 0, 
270, 2929178495, 0.181381955742836, -0.5584316849708557, -0.055823326110839844, -0.8075509071350098, 0.9999914169311523, -0.003933805972337723, 0.0012606112286448479, -0.00039672479033470154, 0.07209283113479614, -0.012772142887115479, 0.02541208267211914, 8.648245811462402, -1.54129159450531, 3.0544369220733643, -54.09601974487305, 17.335390090942383, -5.455590724945068, -1.03662109375, -0.1572265625, -0.30224609375, 0, 
271, 2929186828, 0.17880962789058685, -0.5582826733589172, -0.05259537696838379, -0.8084437251091003, 0.9999915361404419, -0.003933681175112724, 0.0011149374768137932, -0.00047040171921253204, 0.0729912519454956, -0.01404416561126709, 0.02549511194229126, 8.756682395935059, -1.6932817697525024, 3.0626585483551025, -54.09431838989258, 15.332147598266602, -6.4687652587890625, -1.03369140625, -0.16162109375, -0.30322265625, 0, 
272, 2929195161, 0.17628712952136993, -0.5581803917884827, -0.049526240676641464, -0.8092617988586426, 0.9999917149543762, -0.003928221762180328, 0.0009605837985873222, -0.0004996657371520996, 0.07493102550506592, -0.015333473682403564, 0.02600276470184326, 8.990005493164062, -1.8478559255599976, 3.121854782104492, -54.01924133300781, 13.209542274475098, -6.871191501617432, -1.0302734375, -0.156982421875, -0.3076171875, 0, 
273, 2929203494, 0.17361092567443848, -0.558228611946106, -0.04629440978169441, -0.809998095035553, 0.9999919533729553, -0.0038884151726961136, 0.0008508274331688881, -0.000464119017124176, 0.07740151882171631, -0.014940977096557617, 0.026537001132965088, 9.286678314208984, -1.8010646104812622, 3.18548846244812, -53.471832275390625, 11.700216293334961, -6.382367134094238, -1.02880859375, -0.156982421875, -0.30908203125, 0, 
274, 2929211827, 0.17119164764881134, -0.5582166910171509, -0.04328331723809242, -0.8106874823570251, 0.9999922513961792, -0.0038327183574438095, 0.0008105887100100517, -0.0004210472106933594, 0.07943761348724365, -0.01544421911239624, 0.025244593620300293, 9.531218528747559, -1.8609801530838013, 3.030086040496826, -52.70591354370117, 11.146871566772461, -5.790061950683594, -1.030517578125, -0.1552734375, -0.318359375, 0, 
275, 2929220160, 0.16879315674304962, -0.5582625269889832, -0.0401514507830143, -0.811319887638092, 0.9999926090240479, -0.0037466175854206085, 0.0008086161687970161, -0.0003215409815311432, 0.08084005117416382, -0.013843834400177002, 0.024194061756134033, 9.699380874633789, -1.6690806150436401, 2.9050116539001465, -51.52187728881836, 11.119742393493652, -4.421693801879883, -1.031005859375, -0.1572265625, -0.3203125, 0, 
276, 2929228493, 0.1666644811630249, -0.5581396818161011, -0.0372118316590786, -0.8119843602180481, 0.9999931454658508, -0.003592252731323242, 0.0008867504075169563, -0.00022534839808940887, 0.0819210410118103, -0.013332843780517578, 0.02219146490097046, 9.828916549682617, -1.607358694076538, 2.6660423278808594, -49.399112701416016, 12.194209098815918, -3.0988941192626953, -1.032470703125, -0.15625, -0.326171875, 0, 
277, 2929236826, 0.16458703577518463, -0.5579483509063721, -0.0342392660677433, -0.8126699328422546, 0.9999936819076538, -0.0034039057791233063, 0.001025124453008175, -0.00017280690371990204, 0.08157676458358765, -0.015214800834655762, 0.021801292896270752, 9.787235260009766, -1.833066701889038, 2.620070457458496, -46.80903625488281, 14.097065925598145, -2.3763656616210938, -1.030029296875, -0.15283203125, -0.32763671875, 0, 
278, 2929245159, 0.16280940175056458, -0.5575603246688843, -0.03152214735746384, -0.8134039640426636, 0.9999943375587463, -0.0031739454716444016, 0.0011169398203492165, -0.00008506514132022858, 0.080810546875, -0.015875935554504395, 0.02345937490463257, 9.694668769836426, -1.9133012294769287, 2.8200106620788574, -43.646705627441406, 15.35966682434082, -1.1697784662246704, -1.031005859375, -0.1494140625, -0.33056640625, 0, 
279, 2929253492, 0.16117630898952484, -0.5571437478065491, -0.02882430888712406, -0.814114511013031, 0.9999949336051941, -0.0029358845204114914, 0.001208762638270855, 0.000005344860255718231, 0.08142960071563721, -0.017167508602142334, 0.020937085151672363, 9.768895149230957, -2.067612409591675, 2.518301248550415, -40.372989654541016, 16.62236976623535, 0.07350015640258789, -1.02978515625, -0.15283203125, -0.33544921875, 0, 
280, 2929261825, 0.15970981121063232, -0.5564842820167542, -0.026303421705961227, -0.814939558506012, 0.9999951720237732, -0.0027993638068437576, 0.0013664914295077324, 0.00003599841147661209, 0.0809895396232605, -0.017084896564483643, 0.023568272590637207, 9.71518611907959, -2.0585525035858154, 2.835846185684204, -38.49562072753906, 18.7913875579834, 0.4950343072414398, -1.0263671875, -0.15234375, -0.3388671875, 0, 
281, 2929270158, 0.15832914412021637, -0.5557891130447388, -0.02380717545747757, -0.8157597780227661, 0.9999952912330627, -0.0026891715824604034, 0.0014972453936934471, 0.000027342699468135834, 0.08076846599578857, -0.017071545124053955, 0.0237082839012146, 9.68828010559082, -2.056593894958496, 2.8541040420532227, -36.98030471801758, 20.589458465576172, 0.37600478529930115, -1.0234375, -0.144775390625, -0.34423828125, 0, 
282, 2929278491, 0.1569170355796814, -0.5548534989356995, -0.021428052335977554, -0.8167349696159363, 0.999995231628418, -0.0026130713522434235, 0.001654510386288166, -0.000029185786843299866, 0.08021193742752075, -0.017294764518737793, 0.024577796459197998, 9.620992660522461, -2.082890272140503, 2.959947109222412, -35.93380355834961, 22.752094268798828, -0.4013500511646271, -1.0263671875, -0.14404296875, -0.3486328125, 0, 
