PacketCounter,SampleTimeFine,Quat_W,Quat_X,Quat_Y,Quat_Z,dq_W,dq_X,dq_Y,dq_Z,dv[1],dv[2],dv[3],Acc_X,Acc_Y,Acc_Z,Gyr_X,Gyr_Y,Gyr_Z,Mag_X,Mag_Y,Mag_Z,Status,
581, 3616700663, 0.578333854675293, 0.37413033843040466, -0.5972197651863098, 0.4109564423561096, 0.9999966025352478, -0.0024214908480644226, -0.0002228952944278717, -0.0009384267032146454, 0.07891708612442017, -0.011739015579223633, -0.009187519550323486, 9.471500396728516, -1.39717435836792, -1.1080600023269653, -33.299259185791016, -3.0651564598083496, -12.904825210571289, -0.9189453125, 0.1689453125, -0.635986328125, 0, 
582, 3616708996, 0.5792092084884644, 0.37356308102607727, -0.5980234146118164, 0.4090665280818939, 0.9999973177909851, -0.0021052900701761246, -0.00039027445018291473, -0.0008514653891324997, 0.08094197511672974, -0.011951267719268799, -0.006780683994293213, 9.714324951171875, -1.424229621887207, -0.820512056350708, -28.951000213623047, -5.366878509521484, -11.708969116210938, -0.9208984375, 0.16845703125, -0.629638671875, 0, 
583, 3616717329, 0.5799444317817688, 0.37295520305633545, -0.5988450646400452, 0.4073740839958191, 0.9999977350234985, -0.001962849870324135, -0.0003514755517244339, -0.0007399953901767731, 0.08078235387802124, -0.013590812683105469, -0.008709847927093506, 9.695107460021973, -1.6217201948165894, -1.0518349409103394, -26.992225646972656, -4.8333330154418945, -10.176081657409668, -0.923828125, 0.169921875, -0.631591796875, 0, 
584, 3616725662, 0.5807158350944519, 0.37239012122154236, -0.5995472073554993, 0.4057562053203583, 0.9999979734420776, -0.0018610674887895584, -0.00029276497662067413, -0.0006905347108840942, 0.07871079444885254, -0.014735877513885498, -0.010771751403808594, 9.446512222290039, -1.759450078010559, -1.2987086772918701, -25.592554092407227, -4.025970458984375, -9.495918273925781, -0.91796875, 0.16796875, -0.631103515625, 0, 
585, 3616733995, 0.5814422369003296, 0.37178272008895874, -0.6002611517906189, 0.40421441197395325, 0.9999980926513672, -0.001825328916311264, -0.00023439712822437286, -0.0006931256502866745, 0.07843935489654541, -0.013960659503936768, -0.008915960788726807, 9.414009094238281, -1.6668498516082764, -1.07522714138031, -25.10109519958496, -3.223322868347168, -9.531549453735352, -0.92041015625, 0.1708984375, -0.627197265625, 0, 
586, 3616742328, 0.582238495349884, 0.37124496698379517, -0.6008620262145996, 0.4026665687561035, 0.999998152256012, -0.0017715990543365479, -0.00020384229719638824, -0.0007142163813114166, 0.07888394594192505, -0.014773368835449219, -0.006862282752990723, 9.467549324035645, -1.7646404504776, -0.828579843044281, -24.362226486206055, -2.8031468391418457, -9.821579933166504, -0.92138671875, 0.1748046875, -0.629150390625, 0, 
587, 3616750661, 0.5829029083251953, 0.3707437813282013, -0.6014764904975891, 0.4012472331523895, 0.9999983906745911, -0.0016267281025648117, -0.00020642206072807312, -0.0007026437669992447, 0.08020693063735962, -0.014561951160430908, -0.006051123142242432, 9.626294136047363, -1.739540934562683, -0.7309987545013428, -22.370023727416992, -2.8386218547821045, -9.662437438964844, -0.92138671875, 0.17138671875, -0.628662109375, 0, 
588, 3616758994, 0.5834846496582031, 0.3704065680503845, -0.6020580530166626, 0.3998384177684784, 0.9999986290931702, -0.0014837216585874557, -0.00035052746534347534, -0.0006749294698238373, 0.08030468225479126, -0.012464582920074463, -0.002269923686981201, 9.637856483459473, -1.4889191389083862, -0.27797961235046387, -20.40346336364746, -4.82029390335083, -9.281322479248047, -0.91943359375, 0.1708984375, -0.627685546875, 0, 
589, 3616767327, 0.5838068723678589, 0.37010613083839417, -0.6027755737304688, 0.39856332540512085, 0.9999988079071045, -0.0013375692069530487, -0.0004966966807842255, -0.0005690976977348328, 0.08276987075805664, -0.011911511421203613, -0.00225985050201416, 9.933457374572754, -1.4234336614608765, -0.27802082896232605, -18.393640518188477, -6.830345153808594, -7.8259711265563965, -0.92236328125, 0.1748046875, -0.625732421875, 0, 
590, 3616775660, 0.5841307640075684, 0.3698292672634125, -0.6034218668937683, 0.397365927696228, 0.9999989867210388, -0.0012517105787992477, -0.000489378347992897, -0.0004610680043697357, 0.08297228813171387, -0.01223057508468628, -0.006226778030395508, 9.957383155822754, -1.4621775150299072, -0.7539764642715454, -17.21295166015625, -6.729707717895508, -6.340396404266357, -0.9267578125, 0.17529296875, -0.627197265625, 0, 
591, 3616783993, 0.5843034982681274, 0.369530588388443, -0.6041404008865356, 0.39629676938056946, 0.9999991059303284, -0.0011577941477298737, -0.0005119927227497101, -0.00039326585829257965, 0.08091986179351807, -0.012510418891906738, -0.009678781032562256, 9.710763931274414, -1.4961403608322144, -1.168211817741394, -15.921451568603516, -7.040688514709473, -5.408010482788086, -0.923828125, 0.17822265625, -0.627197265625, 0, 
592, 3616792326, 0.5844415426254272, 0.3694121837615967, -0.6047677397727966, 0.39524519443511963, 0.9999992251396179, -0.0009949486702680588, -0.0005993340164422989, -0.000405091792345047, 0.07987827062606812, -0.013324141502380371, -0.008634626865386963, 9.585800170898438, -1.5940226316452026, -1.0435634851455688, -13.682077407836914, -8.241765975952148, -5.57063627243042, -0.9228515625, 0.173828125, -0.623779296875, 0, 
593, 3616800659, 0.5844316482543945, 0.3694053590297699, -0.605387806892395, 0.394316166639328, 0.9999994039535522, -0.0007964372634887695, -0.0006255321204662323, -0.000455465167760849, 0.08147299289703369, -0.0150412917137146, -0.007370412349700928, 9.777413368225098, -1.7999141216278076, -0.8919687271118164, -10.952239036560059, -8.602029800415039, -6.263347625732422, -0.927734375, 0.173828125, -0.621826171875, 0, 
594, 3616808992, 0.5845012664794922, 0.36957889795303345, -0.6056948900222778, 0.3935779929161072, 0.9999996423721313, -0.000483168289065361, -0.0004529617726802826, -0.0004900787025690079, 0.08346402645111084, -0.01895087957382202, -0.012781858444213867, 10.01650619506836, -2.2684905529022217, -1.5395746231079102, -6.6443071365356445, -6.228920936584473, -6.739336013793945, -0.9248046875, 0.1748046875, -0.622314453125, 0, 
595, 3616817325, 0.5844420194625854, 0.36982524394989014, -0.6058503985404968, 0.3931949734687805, 0.9999998807907104, -0.00011672265827655792, -0.0002793092280626297, -0.0004467964172363281, 0.08119028806686401, -0.020011186599731445, -0.015723049640655518, 9.743782043457031, -2.396758556365967, -1.889912724494934, -1.6051160097122192, -3.8409316539764404, -6.144138336181641, -0.9248046875, 0.18017578125, -0.621826171875, 0, 
596, 3616825658, 0.5843108296394348, 0.3702539801597595, -0.6058520078659058, 0.3929837942123413, 0.9999998807907104, 0.00017958041280508041, -0.00030169449746608734, -0.0003707464784383774, 0.07854712009429932, -0.01874774694442749, -0.010025262832641602, 9.426515579223633, -2.2464466094970703, -1.2055898904800415, 2.4695069789886475, -4.148763656616211, -5.098334789276123, -0.92236328125, 0.17578125, -0.617919921875, 0, 
597, 3616833991, 0.5840055346488953, 0.37076571583747864, -0.605852484703064, 0.3929544687271118, 0.9999998211860657, 0.00040448177605867386, -0.000305933877825737, -0.0003699343651533127, 0.07649219036102295, -0.018091142177581787, -0.007562696933746338, 9.179945945739746, -2.168046236038208, -0.909458339214325, 5.562246799468994, -4.207061290740967, -5.0871663093566895, -0.92626953125, 0.1728515625, -0.620361328125, 0, 
598, 3616842324, 0.5837019085884094, 0.3715149462223053, -0.6057172417640686, 0.3929063677787781, 0.9999996423721313, 0.0005831113085150719, -0.00039188191294670105, -0.0004528854042291641, 0.07338368892669678, -0.017373263835906982, -0.007182180881500244, 8.806988716125488, -2.0814554691314697, -0.8640896081924438, 8.018677711486816, -5.388978958129883, -6.227870941162109, -0.927734375, 0.17333984375, -0.621337890625, 0, 
599, 3616850657, 0.5831394791603088, 0.37250053882598877, -0.6056523323059082, 0.3929086923599243, 0.9999993443489075, 0.0008210903033614159, -0.0005960911512374878, -0.0005693249404430389, 0.07275539636611938, -0.017025530338287354, -0.005758464336395264, 8.731739044189453, -2.038783311843872, -0.6945387721061707, 11.29125690460205, -8.197171211242676, -7.829094886779785, -0.927734375, 0.17431640625, -0.618896484375, 0, 
600, 3616858990, 0.5824569463729858, 0.37384873628616333, -0.605496883392334, 0.392880380153656, 0.9999988079071045, 0.0010933848097920418, -0.0008377581834793091, -0.0006630644202232361, 0.07424765825271606, -0.016366124153137207, -0.0047719478607177734, 8.91089153289795, -1.95876145362854, -0.5779475569725037, 15.035725593566895, -11.520466804504395, -9.118159294128418, -0.930908203125, 0.1669921875, -0.614501953125, 0, 
601, 3616867323, 0.5815396308898926, 0.37532803416252136, -0.6054238677024841, 0.39294078946113586, 0.9999984502792358, 0.001279040239751339, -0.0009781457483768463, -0.0007048174738883972, 0.07666140794754028, -0.01549464464187622, -0.0063214898109436035, 9.200303077697754, -1.8539025783538818, -0.7652534246444702, 17.588777542114258, -13.45101261138916, -9.692327499389648, -0.930908203125, 0.16650390625, -0.614013671875, 0, 
602, 3616875656, 0.5805914402008057, 0.37699025869369507, -0.6052446365356445, 0.39302781224250793, 0.999998152256012, 0.0014546485617756844, -0.0010650437325239182, -0.0006910376250743866, 0.07440334558486938, -0.013119697570800781, -0.003173530101776123, 8.929436683654785, -1.5688177347183228, -0.38805603981018066, 20.0036678314209, -14.64599895477295, -9.502836227416992, -0.931884765625, 0.16455078125, -0.614990234375, 0, 
603, 3616883989, 0.57933109998703, 0.3787044882774353, -0.6052660346031189, 0.39320674538612366, 0.9999977350234985, 0.0015785647556185722, -0.0012888945639133453, -0.0006136130541563034, 0.07487225532531738, -0.012580335140228271, -0.002324223518371582, 8.985590934753418, -1.504631757736206, -0.2881191074848175, 21.70770835876465, -17.72429656982422, -8.438129425048828, -0.929931640625, 0.1630859375, -0.610595703125, 0, 
604, 3616892322, 0.5781628489494324, 0.3804507255554199, -0.6051799058914185, 0.3933732211589813, 0.9999977946281433, 0.001597733236849308, -0.001255599781870842, -0.0005745925009250641, 0.07994288206100464, -0.012048780918121338, -0.006673336029052734, 9.593348503112793, -1.4416736364364624, -0.8105939030647278, 21.971302032470703, -17.266437530517578, -7.9015350341796875, -0.932373046875, 0.15966796875, -0.607666015625, 0, 
605, 3616900655, 0.5770308971405029, 0.3820016384124756, -0.6050805449485779, 0.39368492364883423, 0.9999980926513672, 0.0015622200444340706, -0.001028766855597496, -0.000538356602191925, 0.07971310615539551, -0.013228237628936768, -0.010339915752410889, 9.565528869628906, -1.584247350692749, -1.2481944561004639, 21.482940673828125, -14.147135734558105, -7.40323543548584, -0.932373046875, 0.1572265625, -0.607666015625, 0, 
606, 3616908988, 0.5760491490364075, 0.3835897147655487, -0.604790210723877, 0.3940246105194092, 0.999998152256012, 0.0016201967373490334, -0.0008968748152256012, -0.0005305372178554535, 0.07876867055892944, -0.013787984848022461, -0.010987281799316406, 9.452311515808105, -1.6517375707626343, -1.3243476152420044, 22.28021240234375, -12.333415985107422, -7.295707702636719, -0.934814453125, 0.151611328125, -0.606689453125, 0, 
607, 3616917321, 0.57497638463974, 0.3851696848869324, -0.6045010685920715, 0.3944934904575348, 0.9999980330467224, 0.0017256056889891624, -0.0008337199687957764, -0.0005653053522109985, 0.07877731323242188, -0.014741301536560059, -0.012920558452606201, 9.453361511230469, -1.7663604021072388, -1.5553606748580933, 23.72974967956543, -11.46493911743164, -7.773823261260986, -0.9345703125, 0.154052734375, -0.601806640625, 0, 
608, 3616925654, 0.5740416049957275, 0.3869095742702484, -0.6039882302284241, 0.394937664270401, 0.9999977946281433, 0.001840115524828434, -0.0007604639977216721, -0.0006666183471679688, 0.07954037189483643, -0.015695154666900635, -0.012940466403961182, 9.545297622680664, -1.8799889087677002, -1.556714653968811, 25.30443572998047, -10.45755672454834, -9.167034149169922, -0.93798828125, 0.149658203125, -0.599853515625, 0, 
609, 3616933987, 0.5729482173919678, 0.3887908458709717, -0.6034390330314636, 0.3955167829990387, 0.9999972581863403, 0.0020751869305968285, -0.00077081099152565, -0.0007816758006811142, 0.08003121614456177, -0.0164334774017334, -0.009220302104949951, 9.604816436767578, -1.9668856859207153, -1.109796166419983, 28.537038803100586, -10.599847793579102, -10.74925422668457, -0.93798828125, 0.145751953125, -0.600830078125, 0, 
610, 3616942320, 0.5718815326690674, 0.3909558057785034, -0.6027142405509949, 0.39603129029273987, 0.9999966621398926, 0.0022611739113926888, -0.0008596479892730713, -0.0009133536368608475, 0.08007591962814331, -0.016725003719329834, -0.007330119609832764, 9.610567092895508, -2.000305652618408, -0.8833712339401245, 31.09464454650879, -11.821492195129395, -12.560028076171875, -0.93994140625, 0.144287109375, -0.60009765625, 0, 
611, 3616950653, 0.570600152015686, 0.39328640699386597, -0.602046012878418, 0.3965878486633301, 0.9999960064888, 0.0024384642019867897, -0.001001482829451561, -0.0010438617318868637, 0.07977128028869629, -0.01815485954284668, -0.006026625633239746, 9.574482917785645, -2.170435667037964, -0.7275099158287048, 33.53267288208008, -13.77194595336914, -14.354722023010254, -0.9375, 0.141357421875, -0.599609375, 0, 
612, 3616958986, 0.5693605542182922, 0.39586636424064636, -0.6012027263641357, 0.39708152413368225, 0.9999954104423523, 0.0026000430807471275, -0.001069284975528717, -0.0011537577956914902, 0.08154338598251343, -0.016257822513580322, -0.00853031873703003, 9.786748886108398, -1.9423882961273193, -1.0290801525115967, 35.754642486572266, -14.704333305358887, -15.865967750549316, -0.935546875, 0.138427734375, -0.5966796875, 0, 
613, 3616967319, 0.5679734945297241, 0.39853402972221375, -0.6003609299659729, 0.3976728320121765, 0.9999948143959045, 0.0027610035613179207, -0.0010877959430217743, -0.0012601949274539948, 0.08368247747421265, -0.014929234981536865, -0.0057828426361083984, 10.043795585632324, -1.7808388471603394, -0.699960470199585, 37.968109130859375, -14.958892822265625, -17.329648971557617, -0.94140625, 0.133056640625, -0.59619140625, 0, 
614, 3616975652, 0.5666678547859192, 0.40140166878700256, -0.5992574691772461, 0.39831510186195374, 0.999994158744812, 0.0029823044314980507, -0.0010167397558689117, -0.0013198405504226685, 0.08512735366821289, -0.014406323432922363, -0.005803525447845459, 10.217259407043457, -1.7174140214920044, -0.7016991972923279, 41.0113525390625, -13.98176383972168, -18.149873733520508, -0.939697265625, 0.127685546875, -0.591796875, 0, 
615, 3616983985, 0.5651835203170776, 0.4043143391609192, -0.5981173515319824, 0.39919111132621765, 0.9999934434890747, 0.0032273204997181892, -0.0009622238576412201, -0.0013318974524736404, 0.08475637435913086, -0.014592230319976807, -0.007991135120391846, 10.172575950622559, -1.7406914234161377, -0.9631209373474121, 44.380714416503906, -13.232086181640625, -18.315677642822266, -0.944091796875, 0.124267578125, -0.5888671875, 0, 
616, 3616992318, 0.5636565685272217, 0.40744748711586, -0.5967945456504822, 0.4001430571079254, 0.9999925494194031, 0.0034943530336022377, -0.0010067485272884369, -0.0013041719794273376, 0.08122271299362183, -0.01619744300842285, -0.010948777198791504, 9.748324394226074, -1.935650110244751, -1.3169375658035278, 48.05284881591797, -13.844375610351562, -17.93441390991211, -0.941650390625, 0.115478515625, -0.58740234375, 0, 
617, 3617000651, 0.5618370175361633, 0.4106612503528595, -0.5955649018287659, 0.4012468755245209, 0.9999916553497314, 0.0037041595205664635, -0.0011421497911214828, -0.0012904778122901917, 0.07920604944229126, -0.017143309116363525, -0.01274639368057251, 9.506011009216309, -2.0506832599639893, -1.5328724384307861, 50.938026428222656, -15.7063570022583, -17.74610137939453, -0.943603515625, 0.114990234375, -0.58056640625, 0, 
618, 3617008984, 0.5600326657295227, 0.41403743624687195, -0.5942126512527466, 0.4023030996322632, 0.9999911189079285, 0.0038181887939572334, -0.0012113042175769806, -0.0012917742133140564, 0.08020120859146118, -0.019377410411834717, -0.013240575790405273, 9.625603675842285, -2.319023370742798, -1.5917186737060547, 52.5061149597168, -16.6573429107666, -17.763933181762695, -0.9453125, 0.108642578125, -0.58154296875, 0, 
619, 3617017317, 0.5579867959022522, 0.41743627190589905, -0.5929072499275208, 0.40355759859085083, 0.9999903440475464, 0.004020131193101406, -0.001246672123670578, -0.0012634359300136566, 0.0817415714263916, -0.01957637071609497, -0.012718021869659424, 9.810442924499512, -2.343003749847412, -1.5290172100067139, 55.28316116333008, -17.143712997436523, -17.374244689941406, -0.94775390625, 0.1005859375, -0.58154296875, 0, 
620, 3617025650, 0.5559268593788147, 0.42100849747657776, -0.5914040803909302, 0.4048931896686554, 0.99998939037323, 0.004260198213160038, -0.0012420862913131714, -0.0012125838547945023, 0.08256369829177856, -0.017470479011535645, -0.011261940002441406, 9.90889835357666, -2.090289831161499, -1.3548706769943237, 58.58448028564453, -17.080657958984375, -16.674951553344727, -0.95068359375, 0.09423828125, -0.5771484375, 0, 
621, 3617033983, 0.553572952747345, 0.4245491623878479, -0.5899865627288818, 0.4064861238002777, 0.9999885559082031, 0.004472588188946247, -0.001282382756471634, -0.0010897628962993622, 0.08125591278076172, -0.015491664409637451, -0.01113593578338623, 9.7514066696167, -1.8544321060180664, -1.3405609130859375, 61.505191802978516, -17.63479995727539, -14.985973358154297, -0.9501953125, 0.0888671875, -0.5751953125, 0, 
622, 3617042316, 0.5511844158172607, 0.4282192587852478, -0.5884912014007568, 0.40804675221443176, 0.9999880194664001, 0.00458295363932848, -0.0013861898332834244, -0.001009274274110794, 0.08361810445785522, -0.012685537338256836, -0.012204945087432861, 10.034076690673828, -1.5189224481582642, -1.4715863466262817, 63.022926330566406, -19.062320709228516, -13.879131317138672, -0.9541015625, 0.0869140625, -0.572265625, 0, 
623, 3617050649, 0.5486211180686951, 0.4317537546157837, -0.587089478969574, 0.4097924530506134, 0.9999879002571106, 0.004640749655663967, -0.0013484973460435867, -0.0009169839322566986, 0.08362948894500732, -0.010198235511779785, -0.010046064853668213, 10.035431861877441, -1.2202407121658325, -1.2134361267089844, 63.81770324707031, -18.543983459472656, -12.609990119934082, -0.947998046875, 0.080078125, -0.56494140625, 0, 
624, 3617058982, 0.5461615920066833, 0.4352925717830658, -0.5855317711830139, 0.4115590751171112, 0.9999879002571106, 0.004687412641942501, -0.0012525767087936401, -0.0008173342794179916, 0.0853646993637085, -0.007035791873931885, -0.008017301559448242, 10.243653297424316, -0.8404809832572937, -0.970990777015686, 64.45938873291016, -17.224924087524414, -11.239648818969727, -0.955322265625, 0.07421875, -0.5693359375, 0, 
625, 3617067315, 0.5436304211616516, 0.43865275382995605, -0.5839521288871765, 0.41358160972595215, 0.9999878406524658, 0.0047654202207922935, -0.001042235642671585, -0.0007577929645776749, 0.08742505311965942, -0.0045847296714782715, -0.008210599422454834, 10.490811347961426, -0.5469469428062439, -0.993631899356842, 65.53211975097656, -14.332401275634766, -10.420860290527344, -0.951416015625, 0.07080078125, -0.559814453125, 0, 
626, 3617075648, 0.5412545204162598, 0.44205132126808167, -0.5821079611778259, 0.41567370295524597, 0.9999874830245972, 0.004882638342678547, -0.0008484218269586563, -0.0007185265421867371, 0.08765256404876709, -0.003999769687652588, -0.007952511310577393, 10.518260955810547, -0.47710543870925903, -0.9609215259552002, 67.14407348632812, -11.667154312133789, -9.88088607788086, -0.954345703125, 0.06591796875, -0.561767578125, 0, 
627, 3617083981, 0.5387359261512756, 0.4453541338443756, -0.5802577137947083, 0.418000727891922, 0.9999868869781494, 0.005017825402319431, -0.0007335953414440155, -0.0006841365247964859, 0.08711963891983032, -0.0031461119651794434, -0.009540677070617676, 10.45418930053711, -0.3761501908302307, -1.1507066488265991, 69.00311279296875, -10.088107109069824, -9.40796947479248, -0.9560546875, 0.0634765625, -0.558837890625, 0, 
628, 3617092314, 0.5363174676895142, 0.44874006509780884, -0.5782099366188049, 0.42032068967819214, 0.9999865293502808, 0.005111741833388805, -0.000658007338643074, -0.0006610527634620667, 0.08463823795318604, -0.004238545894622803, -0.013970255851745605, 10.156227111816406, -0.5105085968971252, -1.6805778741836548, 70.29462432861328, -9.048654556274414, -9.090533256530762, -0.95703125, 0.0537109375, -0.555908203125, 0, 
629, 3617100647, 0.5337709784507751, 0.4520076513290405, -0.5762486457824707, 0.42274731397628784, 0.9999865293502808, 0.005115116946399212, -0.0006336085498332977, -0.0006477013230323792, 0.08253532648086548, -0.0059661865234375, -0.018324196338653564, 9.903706550598145, -0.7208060026168823, -2.2015950679779053, 70.34103393554688, -8.713129997253418, -8.906928062438965, -0.95703125, 0.05322265625, -0.553955078125, 0, 
630, 3617108980, 0.5313037633895874, 0.45530951023101807, -0.574157178401947, 0.4251510500907898, 0.9999863505363464, 0.005155364982783794, -0.0005906801670789719, -0.0005675256252288818, 0.08283615112304688, -0.006100714206695557, -0.018022119998931885, 9.939873695373535, -0.7376248836517334, -2.164827823638916, 70.89452362060547, -8.122797012329102, -7.804386138916016, -0.9609375, 0.041748046875, -0.552490234375, 0, 
631, 3617117313, 0.5286901593208313, 0.4583943486213684, -0.5721326470375061, 0.4278149902820587, 0.9999862313270569, 0.005211026407778263, -0.0004524700343608856, -0.0004178173840045929, 0.08484691381454468, -0.004093766212463379, -0.014515578746795654, 10.181453704833984, -0.4960988163948059, -1.7439779043197632, 71.65995788574219, -6.222187519073486, -5.745657920837402, -0.961669921875, 0.041259765625, -0.546630859375, 0, 
632, 3617125646, 0.5262925028800964, 0.4612964987754822, -0.5699531435966492, 0.43055227398872375, 0.9999867677688599, 0.005140324123203754, -0.00018243677914142609, -0.00023254938423633575, 0.08490157127380371, -0.0031231045722961426, -0.012287378311157227, 10.188414573669434, -0.38000041246414185, -1.4744677543640137, 70.68766784667969, -2.5087974071502686, -3.1979258060455322, -0.957275390625, 0.037353515625, -0.546142578125, 0, 
633, 3617133979, 0.5238466262817383, 0.46378061175346375, -0.5679869055747986, 0.43345513939857483, 0.9999878406524658, 0.004928098060190678, -0.00001864507794380188, 0.000005261041224002838, 0.08297181129455566, -0.00010317564010620117, -0.011803865432739258, 9.956989288330078, -0.01941562443971634, -1.4166332483291626, 67.76919555664062, -0.256399542093277, 0.07234770059585571, -0.960693359375, 0.031005859375, -0.545654296875, 0, 
634, 3617142312, 0.5215721726417542, 0.46602603793144226, -0.5661495327949524, 0.43618470430374146, 0.9999894499778748, 0.004586211405694485, -0.000012874603271484375, 0.000241733156144619, 0.08048290014266968, 0.0037944912910461426, -0.009892463684082031, 9.658427238464355, 0.44757145643234253, -1.1893447637557983, 63.06768798828125, -0.17704622447490692, 3.324214458465576, -0.956787109375, 0.029541015625, -0.545166015625, 0, 
635, 3617150645, 0.5191844701766968, 0.4679326117038727, -0.5647608041763306, 0.4387843906879425, 0.9999911785125732, 0.004176090471446514, -0.0001784246414899826, 0.00041897688060998917, 0.08019745349884033, 0.004191577434539795, -0.008201420307159424, 9.624112129211426, 0.4948635399341583, -0.988015353679657, 57.42782974243164, -2.453620195388794, 5.761592864990234, -0.954345703125, 0.02880859375, -0.544189453125, 0, 
636, 3617158978, 0.516890287399292, 0.4698246419429779, -0.5635154247283936, 0.44106632471084595, 0.9999921917915344, 0.0038993069902062416, -0.0003876127302646637, 0.0004933429881930351, 0.08133286237716675, 0.0022211670875549316, -0.0069901347160339355, 9.760138511657715, 0.2584643065929413, -0.8436580300331116, 53.62160873413086, -5.33028507232666, 6.784243106842041, -0.956787109375, 0.027587890625, -0.540283203125, 0, 
637, 3617167311, 0.5144339799880981, 0.4716450273990631, -0.5624873638153076, 0.44330212473869324, 0.9999925494194031, 0.003799869678914547, -0.0005381312221288681, 0.00048265326768159866, 0.08153873682022095, -0.0006266236305236816, -0.00856691598892212, 9.78444766998291, -0.08383288979530334, -1.0330398082733154, 52.25418472290039, -7.400150775909424, 6.637241840362549, -0.956298828125, 0.025390625, -0.538330078125, 0, 
638, 3617175644, 0.5119945406913757, 0.4736446738243103, -0.5613946318626404, 0.4453747570514679, 0.999992311000824, 0.00383779127150774, -0.0006951671093702316, 0.000460292212665081, 0.08105272054672241, -0.004085123538970947, -0.009313046932220459, 9.725708961486816, -0.4990147054195404, -1.122483491897583, 52.77566146850586, -9.559639930725098, 6.329741477966309, -0.960205078125, 0.019775390625, -0.538818359375, 0, 
639, 3617183977, 0.5093138813972473, 0.4757431745529175, -0.5603694915771484, 0.44749757647514343, 0.9999916553497314, 0.003983558155596256, -0.0008447840809822083, 0.0003723734989762306, 0.08084148168563843, -0.00796043872833252, -0.008576393127441406, 9.700139045715332, -0.9630081057548523, -1.0335874557495117, 54.780208587646484, -11.61711311340332, 5.12072229385376, -0.9609375, 0.018310546875, -0.535400390625, 0, 
640, 3617192310, 0.5066642165184021, 0.47815972566604614, -0.5591019988059998, 0.4495106041431427, 0.9999907612800598, 0.004194720648229122, -0.000939246267080307, 0.00020628143101930618, 0.08073574304580688, -0.011800110340118408, -0.010216951370239258, 9.687232971191406, -1.4232105016708374, -1.2292306423187256, 57.68402862548828, -12.916119575500488, 2.8366951942443848, -0.962890625, 0.017822265625, -0.533447265625, 0, 
641, 3617200643, 0.5038397312164307, 0.4807281494140625, -0.5577611923217773, 0.4516066014766693, 0.9999897480010986, 0.004416813142597675, -0.0009907297790050507, 0.000009222887456417084, 0.07973891496658325, -0.014973819255828857, -0.013115465641021729, 9.567475318908691, -1.803977370262146, -1.5754526853561401, 60.738189697265625, -13.624105453491211, 0.1268293261528015, -0.96142578125, 0.012939453125, -0.530517578125, 0, 
642, 3617208976, 0.5011049509048462, 0.4835691750049591, -0.556134819984436, 0.4536176919937134, 0.999988853931427, 0.004610470496118069, -0.0009985603392124176, -0.0001661386340856552, 0.08031004667282104, -0.016765058040618896, -0.01327979564666748, 9.636333465576172, -2.017637252807617, -1.593977928161621, 63.40128707885742, -13.731788635253906, -2.2846696376800537, -0.96728515625, 0.011962890625, -0.528564453125, 0, 
643, 3617217309, 0.4982224106788635, 0.48646631836891174, -0.554383397102356, 0.45583340525627136, 0.9999877214431763, 0.00486170407384634, -0.0009096022695302963, -0.0002897772938013077, 0.08095669746398926, -0.016421794891357422, -0.013217628002166748, 9.714319229125977, -1.9755913019180298, -1.5854260921478271, 66.8561782836914, -12.508481979370117, -3.9848997592926025, -0.96533203125, 0.004638671875, -0.52294921875, 0, 
644, 3617225642, 0.4954393208026886, 0.4895211458206177, -0.5522913932800293, 0.45813021063804626, 0.9999865889549255, 0.005110966973006725, -0.0007522068917751312, -0.0003466140478849411, 0.08141475915908813, -0.014341294765472412, -0.011682271957397461, 9.769704818725586, -1.7248023748397827, -1.4004744291305542, 70.28396606445312, -10.344047546386719, -4.766497611999512, -0.968994140625, 0.001708984375, -0.5205078125, 0, 
645, 3617233975, 0.4925748407840729, 0.4924332797527313, -0.5501490831375122, 0.46066850423812866, 0.9999861717224121, 0.005216165445744991, -0.000556454062461853, -0.0003425106406211853, 0.08345556259155273, -0.010247349739074707, -0.008615970611572266, 10.014915466308594, -1.2316921949386597, -1.0331130027770996, 71.73062896728516, -7.652134895324707, -4.7100701332092285, -0.965576171875, -0.001220703125, -0.5166015625, 0, 
646, 3617242308, 0.4898231327533722, 0.4953216314315796, -0.5478022694587708, 0.4632953405380249, 0.9999858140945435, 0.0053121307864785194, -0.00037134625017642975, -0.00023196451365947723, 0.0836409330368042, -0.006562352180480957, -0.0069879889488220215, 10.03718376159668, -0.7896386384963989, -0.8381326198577881, 73.05030822753906, -5.106606483459473, -3.1898839473724365, -0.967529296875, -0.006103515625, -0.51611328125, 0, 
647, 3617250641, 0.48687198758125305, 0.49800214171409607, -0.5456271171569824, 0.4660908281803131, 0.9999858736991882, 0.005301368422806263, -0.0003569982945919037, -0.00006783008575439453, 0.08246088027954102, -0.003665626049041748, -0.008538782596588135, 9.895365715026855, -0.44465354084968567, -1.0258865356445312, 72.9023208618164, -4.909298896789551, -0.9327724575996399, -0.967041015625, -0.005615234375, -0.51171875, 0, 
648, 3617258974, 0.48383551836013794, 0.5007354617118835, -0.5434611439704895, 0.46884673833847046, 0.9999855160713196, 0.005364288575947285, -0.00048028118908405304, 0.00013785529881715775, 0.08342379331588745, -0.0023017525672912598, -0.012025833129882812, 10.010522842407227, -0.2853495478630066, -1.4464679956436157, 73.76757049560547, -6.6046366691589355, 1.8957314491271973, -0.971435546875, -0.010986328125, -0.51123046875, 0, 
649, 3617267307, 0.4802481234073639, 0.5036273002624512, -0.5412821769714355, 0.4719483256340027, 0.9999850988388062, 0.005409414879977703, -0.0006288308650255203, 0.0003064582124352455, 0.08445626497268677, -0.0006113648414611816, -0.01699995994567871, 10.133849143981934, -0.08751504868268967, -2.0460257530212402, 74.38813781738281, -8.647433280944824, 4.214292526245117, -0.96923828125, -0.015380859375, -0.50634765625, 0, 
650, 3617275640, 0.4770141839981079, 0.5062993168830872, -0.5392870903015137, 0.4746454060077667, 0.9999855756759644, 0.005321267060935497, -0.0006716810166835785, 0.00032084155827760696, 0.08844649791717529, -0.0009698271751403809, -0.017216026782989502, 10.612574577331543, -0.130798801779747, -2.0724918842315674, 73.17596435546875, -9.236692428588867, 4.412086486816406, -0.97314453125, -0.0185546875, -0.5078125, 0, 
651, 3617283973, 0.4735943078994751, 0.5090038776397705, -0.5370684266090393, 0.4776829183101654, 0.9999861121177673, 0.00523983221501112, -0.00046317465603351593, 0.00027779024094343185, 0.09001123905181885, -0.00029772520065307617, -0.010985970497131348, 10.80115795135498, -0.04564495384693146, -1.3231674432754517, 72.05608367919922, -6.369393348693848, 3.8200607299804688, -0.970703125, -0.020263671875, -0.5, 0, 
652, 3617292306, 0.4706679582595825, 0.5114402174949646, -0.534949004650116, 0.4803437292575836, 0.9999869465827942, 0.0050919679924845695, -0.000353936105966568, 0.00022092368453741074, 0.08721041679382324, 0.0018981099128723145, -0.006547510623931885, 10.465439796447754, 0.22145986557006836, -0.7905867695808411, 70.02268981933594, -4.867186546325684, 3.038053274154663, -0.9697265625, -0.025146484375, -0.49951171875, 0, 
653, 3617300639, 0.4675152003765106, 0.5139814019203186, -0.5328048467636108, 0.4830857217311859, 0.9999882578849792, 0.004820368252694607, -0.00042654573917388916, 0.0001406325027346611, 0.08641564846038818, 0.004095613956451416, -0.007123172283172607, 10.3699951171875, 0.4859066307544708, -0.8615947365760803, 66.28772735595703, -5.865682125091553, 1.9339205026626587, -0.97265625, -0.026123046875, -0.49658203125, 0, 
654, 3617308972, 0.46489742398262024, 0.5162280797958374, -0.5309499502182007, 0.4852539598941803, 0.9999899864196777, 0.004453415982425213, -0.0004749223589897156, 0.00007767137140035629, 0.08431452512741089, 0.0049059391021728516, -0.009532749652862549, 10.117648124694824, 0.5828469395637512, -1.1513915061950684, 61.241519927978516, -6.530933856964111, 1.0681042671203613, -0.972412109375, -0.029052734375, -0.4921875, 0, 
655, 3617317305, 0.4621245265007019, 0.5184532403945923, -0.5291513204574585, 0.48748981952667236, 0.9999917149543762, 0.00403811689466238, -0.000495418906211853, 0.00007299799472093582, 0.08396792411804199, 0.005279839038848877, -0.011702775955200195, 10.075902938842773, 0.6271841526031494, -1.4119369983673096, 55.53046798706055, -6.812790393829346, 1.0038373470306396, -0.969970703125, -0.030029296875, -0.49169921875, 0, 
656, 3617325638, 0.45995262265205383, 0.5202041864395142, -0.5276020765304565, 0.48935413360595703, 0.9999931454658508, 0.0036824801936745644, -0.0002968069165945053, 0.0001399768516421318, 0.08634495735168457, 0.003564596176147461, -0.012370169162750244, 10.361427307128906, 0.42084044218063354, -1.4891256093978882, 50.6398811340332, -4.081561088562012, 1.9249012470245361, -0.974853515625, -0.031494140625, -0.48828125, 0, 
657, 3617333971, 0.45768073201179504, 0.52179354429245, -0.5259302854537964, 0.49158668518066406, 0.9999940395355225, 0.003437657840549946, 0.000019223429262638092, 0.00023313704878091812, 0.08390694856643677, 0.0005728602409362793, -0.010827243328094482, 10.069276809692383, 0.061938025057315826, -1.2993559837341309, 47.27317810058594, 0.2643522620201111, 3.2059996128082275, -0.973388671875, -0.035400390625, -0.4892578125, 0, 
658, 3617342304, 0.4558153748512268, 0.5230677723884583, -0.5244622230529785, 0.4935304820537567, 0.9999944567680359, 0.003305121324956417, 0.00010227691382169724, 0.00031960103660821915, 0.07858306169509888, -0.0018256306648254395, -0.008420050144195557, 9.430378913879395, -0.2254306972026825, -1.0087523460388184, 45.450584411621094, 1.4064671993255615, 4.395013332366943, -0.974365234375, -0.037109375, -0.48828125, 0, 
659, 3617350637, 0.45353826880455017, 0.5244601368904114, -0.5229992866516113, 0.495697945356369, 0.9999945759773254, 0.0032584546133875847, -0.000017739832401275635, 0.0004190998151898384, 0.07816320657730103, -0.0036484599113464355, -0.006413638591766357, 9.379761695861816, -0.4442674517631531, -0.7684009075164795, 44.808837890625, -0.24395039677619934, 5.763277053833008, -0.971923828125, -0.036865234375, -0.48779296875, 0, 
660, 3617358970, 0.45151108503341675, 0.5256633758544922, -0.521722137928009, 0.49761614203453064, 0.9999945759773254, 0.0032490240409970284, -0.000048007816076278687, 0.0005245814099907875, 0.08031582832336426, -0.0035375356674194336, -0.0036580562591552734, 9.638039588928223, -0.4310111403465271, -0.4380594789981842, 44.67915725708008, -0.660182535648346, 7.213814735412598, -0.972412109375, -0.041259765625, -0.484375, 0, 
661, 3617367303, 0.44915148615837097, 0.5268927812576294, -0.5204451084136963, 0.49978387355804443, 0.9999948740005493, 0.003143499605357647, -0.00006500259041786194, 0.0006446121260523796, 0.0795474648475647, -0.002921879291534424, -0.002515733242034912, 9.545830726623535, -0.3577486574649811, -0.301410436630249, 43.22802734375, -0.8938871622085571, 8.864422798156738, -0.972900390625, -0.039306640625, -0.48388671875, 0, 
662, 3617375636, 0.44703972339630127, 0.5278469920158386, -0.5195087790489197, 0.501641035079956, 0.9999951720237732, 0.0029788119718432426, -0.00015336275100708008, 0.0008480949327349663, 0.07923626899719238, -0.0023373961448669434, -0.0018448829650878906, 9.50845718383789, -0.2892322540283203, -0.22200921177864075, 40.96331024169922, -2.1089770793914795, 11.662628173828125, -0.974365234375, -0.0400390625, -0.4833984375, 0, 
663, 3617383969, 0.44457921385765076, 0.5287337899208069, -0.5186805129051208, 0.5037465691566467, 0.9999955296516418, 0.002790541388094425, -0.0001826249063014984, 0.0010843565687537193, 0.08079522848129272, -0.0016159415245056152, -0.0026125311851501465, 9.69554328918457, -0.2053154557943344, -0.31473585963249207, 38.37429428100586, -2.5113770961761475, 14.91159439086914, -0.977294921875, -0.0380859375, -0.481689453125, 0, 
664, 3617392302, 0.44244688749313354, 0.5292619466781616, -0.5182309150695801, 0.5055289268493652, 0.9999959468841553, 0.002515549771487713, -0.00020625069737434387, 0.0013032173737883568, 0.08669871091842651, -0.001017749309539795, -0.0009046792984008789, 10.404073715209961, -0.13598129153251648, -0.11039464920759201, 34.59272384643555, -2.836268186569214, 17.921266555786133, -0.971435546875, -0.040771484375, -0.477294921875, 0, 
665, 3617400635, 0.44021767377853394, 0.5295726656913757, -0.5179875493049622, 0.5073952674865723, 0.9999968409538269, 0.002020922489464283, -0.00016191601753234863, 0.0014709075912833214, 0.09379059076309204, -0.0009685754776000977, 0.0026758313179016113, 11.255193710327148, -0.13217778503894806, 0.31953227519989014, 27.790815353393555, -2.2265961170196533, 20.227258682250977, -0.975830078125, -0.036376953125, -0.480224609375, 0, 
666, 3617408968, 0.43824249505996704, 0.529646635055542, -0.5179924964904785, 0.5090203285217285, 0.9999968409538269, 0.0019195592030882835, -0.00017869099974632263, 0.0016298191621899605, 0.10011088848114014, -0.0025326013565063477, -0.003651261329650879, 12.013201713562012, -0.3243616819381714, -0.43971988558769226, 26.396921157836914, -2.4572787284851074, 22.41254425048828, -0.978759765625, -0.03369140625, -0.474853515625, 0, 
667, 3617417301, 0.4357832968235016, 0.5298062562942505, -0.5177924036979675, 0.5111647844314575, 0.9999958872795105, 0.002226109616458416, -0.00008177384734153748, 0.001813284121453762, 0.10628795623779297, -0.004938066005706787, -0.003689408302307129, 12.753936767578125, -0.6167193651199341, -0.4424518346786499, 30.612470626831055, -1.124517560005188, 24.93547821044922, -0.979736328125, -0.033203125, -0.475341796875, 0, 
668, 3617425634, 0.4336070418357849, 0.5296494960784912, -0.5175001621246338, 0.5134685635566711, 0.9999949932098389, 0.00242802407592535, 0.00032478850334882736, 0.0019905148074030876, 0.10533797740936279, -0.009555280208587646, 0.0034831762313842773, 12.638628005981445, -1.1707979440689087, 0.42490053176879883, 33.389122009277344, 4.466348648071289, 27.372682571411133, -0.979248046875, -0.030029296875, -0.472900390625, 0, 
669, 3617433967, 0.43121960759162903, 0.5294070839881897, -0.517045259475708, 0.5161802768707275, 0.9999946355819702, 0.0024361638352274895, 0.0005712909623980522, 0.0020999452099204063, 0.1014624834060669, -0.01881808042526245, 0.010028064250946045, 12.170536041259766, -2.280879497528076, 1.215888500213623, 33.50105285644531, 7.856141567230225, 28.877521514892578, -0.979248046875, -0.02978515625, -0.475830078125, 0, 
670, 3617442300, 0.4290209412574768, 0.5290788412094116, -0.516848087310791, 0.518541157245636, 0.9999948143959045, 0.002345285378396511, 0.0003911750391125679, 0.0021658530458807945, 0.11024594306945801, -0.024900734424591064, 0.008331477642059326, 13.223158836364746, -3.0144946575164795, 1.0120171308517456, 32.251338958740234, 5.379267692565918, 29.783863067626953, -0.979736328125, -0.024169921875, -0.476318359375, 0, 
671, 3617450633, 0.4264776408672333, 0.5288825631141663, -0.5165082812309265, 0.5211711525917053, 0.9999945759773254, 0.0024298978969454765, 0.000367618165910244, 0.0021825870499014854, 0.12289118766784668, -0.027782738208770752, -0.000995635986328125, 14.74028491973877, -3.3664801120758057, -0.1059517189860344, 33.41489028930664, 5.055324077606201, 30.01398277282715, -0.982177734375, -0.0224609375, -0.475341796875, 0, 
672, 3617458966, 0.42422905564308167, 0.5286261439323425, -0.5161573886871338, 0.523608386516571, 0.9999945163726807, 0.0025213630869984627, 0.00043432507663965225, 0.0021054306998848915, 0.12831228971481323, -0.037238478660583496, -0.0022904276847839355, 15.388786315917969, -4.501852989196777, -0.25689971446990967, 34.67268371582031, 5.972648620605469, 28.952964782714844, -0.979736328125, -0.019775390625, -0.474853515625, 0, 
673, 3617467299, 0.4216163158416748, 0.5286062359809875, -0.5155640244483948, 0.5263162851333618, 0.999994158744812, 0.002735595218837261, 0.0003795800730586052, 0.002019827254116535, 0.13062506914138794, -0.03799563646316528, -0.0005571246147155762, 15.666421890258789, -4.591494083404541, -0.04839786887168884, 37.618717193603516, 5.219820499420166, 27.775787353515625, -0.981689453125, -0.01953125, -0.475341796875, 0, 
674, 3617475632, 0.41898325085639954, 0.5289034843444824, -0.5147944092750549, 0.5288676619529724, 0.9999930262565613, 0.0032368218526244164, 0.0001828102394938469, 0.0018483726307749748, 0.13846123218536377, -0.03658318519592285, -0.0033936500549316406, 16.60795783996582, -4.422143936157227, -0.3899843394756317, 44.511383056640625, 2.513927936553955, 25.418025970458984, -0.983642578125, -0.017578125, -0.475830078125, 0, 
675, 3617483965, 0.4157588481903076, 0.5298617482185364, -0.5131964683532715, 0.5319967865943909, 0.9999900460243225, 0.004207485355436802, 0.00018768664449453354, 0.001475703902542591, 0.13303923606872559, -0.03734588623046875, 0.003507852554321289, 15.958645820617676, -4.503432273864746, 0.4428337514400482, 57.85957717895508, 2.5809881687164307, 20.293262481689453, -0.985107421875, -0.0126953125, -0.473876953125, 0, 
676, 3617492298, 0.41227051615715027, 0.5316573977470398, -0.5110195875167847, 0.5350068807601929, 0.9999854564666748, 0.005296395160257816, -0.00022197701036930084, 0.0009789122268557549, 0.11560112237930298, -0.04160118103027344, 0.009978950023651123, 13.868067741394043, -4.999535083770752, 1.2208956480026245, 72.83392333984375, -3.052539348602295, 13.461612701416016, -0.981201171875, -0.015380859375, -0.470947265625, 0, 
677, 3617500631, 0.40785345435142517, 0.5345871448516846, -0.5081090331077576, 0.538235604763031, 0.9999786019325256, 0.006465365178883076, -0.0008946657180786133, 0.0004353513941168785, 0.1073189377784729, -0.04938596487045288, 0.013333916664123535, 12.877646446228027, -5.921755790710449, 1.6269227266311646, 88.90935516357422, -12.303117752075195, 5.986793518066406, -0.98681640625, -0.0205078125, -0.467041015625, 0, 
678, 3617508964, 0.40331897139549255, 0.5383232235908508, -0.5043522715568542, 0.5414526462554932, 0.999970555305481, 0.00760249886661768, -0.001039460301399231, -0.00020749680697917938, 0.11075228452682495, -0.05592077970504761, 0.005423426628112793, 13.292887687683105, -6.702961444854736, 0.6880191564559937, 104.54708099365234, -14.294318199157715, -2.853428363800049, -0.98486328125, -0.021240234375, -0.459228515625, 0, 
679, 3617517297, 0.3985145688056946, 0.5426293015480042, -0.4993085563182831, 0.5453720092773438, 0.9999614953994751, 0.008705905638635159, -0.0006108097732067108, -0.000926898792386055, 0.10399937629699707, -0.060630619525909424, 0.006289660930633545, 12.487635612487793, -7.2576584815979, 0.8104668855667114, 119.72113037109375, -8.399681091308594, -12.746447563171387, -0.986328125, -0.02490234375, -0.462158203125, 0, 
680, 3617525630, 0.39390695095062256, 0.5474608540534973, -0.49312978982925415, 0.5494970679283142, 0.9999500513076782, 0.009852555580437183, -0.00021145492792129517, -0.0016623549163341522, 0.09572219848632812, -0.055995404720306396, 0.00985187292098999, 11.498530387878418, -6.6887617111206055, 1.2459404468536377, 135.4900360107422, -2.907878875732422, -22.860315322875977, -0.98388671875, -0.031982421875, -0.456298828125, 0, 
681, 3617533963, 0.38896462321281433, 0.552769660949707, -0.48569244146347046, 0.5543060898780823, 0.9999346137046814, 0.011193609796464443, 0.00015456881374120712, -0.0023383963853120804, 0.09006243944168091, -0.043980956077575684, 0.010225117206573486, 10.820045471191406, -5.23867654800415, 1.287675142288208, 153.93267822265625, 2.1256051063537598, -32.15724182128906, -0.986083984375, -0.0419921875, -0.452880859375, 0, 
682, 3617542296, 0.38358592987060547, 0.5588337182998657, -0.4769943654537201, 0.5595026016235352, 0.9999157190322876, 0.012674218975007534, 0.0003053387627005577, -0.002804720774292946, 0.08537691831588745, -0.031023919582366943, 0.008279144763946533, 10.25573444366455, -3.6814687252044678, 1.0436784029006958, 174.29490661621094, 4.198996067047119, -38.5703125, -0.983154296875, -0.0537109375, -0.446533203125, 0, 
683, 3617550629, 0.3776010572910309, 0.5650648474693298, -0.467693567276001, 0.5651390552520752, 0.9999008774757385, 0.01376406941562891, 0.000277186743915081, -0.002941995859146118, 0.07984250783920288, -0.023439228534698486, 0.008567333221435547, 9.589428901672363, -2.770280122756958, 1.0693014860153198, 189.28335571289062, 3.8118693828582764, -40.45830154418945, -0.97998046875, -0.067138671875, -0.443115234375, 0, 
684, 3617558962, 0.37105676531791687, 0.5714724063873291, -0.45802903175354004, 0.5709167122840881, 0.9998945593833923, 0.01427826751023531, 0.0002554329112172127, -0.0026323553174734116, 0.07554608583450317, -0.01921391487121582, 0.004400670528411865, 9.071796417236328, -2.2741847038269043, 0.5631899237632751, 196.35501098632812, 3.512718439102173, -36.20020294189453, -0.97900390625, -0.07958984375, -0.439697265625, 0, 
685, 3617567295, 0.3641820251941681, 0.5771498680114746, -0.4488675892353058, 0.5768772959709167, 0.9998959898948669, 0.0142825311049819, 0.000280904583632946, -0.0019883904606103897, 0.07109397649765015, -0.012868940830230713, -0.0031518936157226562, 8.534785270690918, -1.532654047012329, -0.35384297370910645, 196.41357421875, 3.863003969192505, -27.344375610351562, -0.979736328125, -0.090087890625, -0.427734375, 0, 
686, 3617575628, 0.3569883108139038, 0.5824612975120544, -0.4400668144226074, 0.582785964012146, 0.9999037981033325, 0.01381248701363802, 0.00034525152295827866, -0.0012168344110250473, 0.06801921129226685, -0.004883825778961182, -0.013703584671020508, 8.163917541503906, -0.5988134145736694, -1.6335238218307495, 189.94903564453125, 4.747891902923584, -16.7338809967041, -0.977294921875, -0.101806640625, -0.42578125, 0, 
687, 3617583961, 0.34987086057662964, 0.5868944525718689, -0.4320368468761444, 0.5886338353157043, 0.9999157786369324, 0.012952054850757122, 0.0004465552046895027, -0.0006552916020154953, 0.06715625524520874, 0.011355280876159668, -0.020113646984100342, 8.059264183044434, 1.3366451263427734, -2.4276726245880127, 178.1156768798828, 6.140993595123291, -9.011521339416504, -0.97802734375, -0.109619140625, -0.41552734375, 0, 
688, 3617592294, 0.34314292669296265, 0.5909565687179565, -0.4246160387992859, 0.5939064621925354, 0.9999276995658875, 0.012013486586511135, 0.0004158308729529381, -0.00036072172224521637, 0.06615525484085083, 0.025898396968841553, -0.0251578688621521, 7.939091205596924, 3.074388265609741, -3.052968978881836, 165.20790100097656, 5.718451976776123, -4.960598468780518, -0.97607421875, -0.116455078125, -0.4111328125, 0, 
689, 3617600627, 0.33673202991485596, 0.5945343375205994, -0.4179558753967285, 0.598709762096405, 0.9999396204948425, 0.010983678512275219, 0.0001653553918004036, -0.00025001540780067444, 0.06509387493133545, 0.03820520639419556, -0.028709471225738525, 7.811006546020508, 4.548739910125732, -3.4942100048065186, 151.04550170898438, 2.2739367485046387, -3.4381654262542725, -0.97802734375, -0.121826171875, -0.40771484375, 0, 
690, 3617608960, 0.3309953510761261, 0.5979861617088318, -0.41202202439308167, 0.6025716066360474, 0.9999525547027588, 0.009737209416925907, -0.00014733895659446716, -0.0002914704382419586, 0.06587755680084229, 0.047135770320892334, -0.036795616149902344, 7.903324604034424, 5.615642547607422, -4.471762657165527, 133.90370178222656, -2.0261690616607666, -4.008229732513428, -0.978271484375, -0.125732421875, -0.39892578125, 0, 
691, 3617617293, 0.32586121559143066, 0.6011627316474915, -0.4068825840950012, 0.6056933999061584, 0.9999637603759766, 0.008479551412165165, -0.00056486576795578, -0.0004830751568078995, 0.06139427423477173, 0.04944479465484619, -0.03443807363510132, 7.362402439117432, 5.901974678039551, -4.1871161460876465, 116.60828399658203, -7.767866611480713, -6.643106460571289, -0.977783203125, -0.134033203125, -0.3955078125, 0, 
692, 3617625626, 0.3213922083377838, 0.6046040058135986, -0.40245378017425537, 0.6076117753982544, 0.9999724626541138, 0.0072684818878769875, -0.0012838486582040787, -0.0007869880646467209, 0.06053948402404785, 0.048116207122802734, -0.03177875280380249, 7.255570888519287, 5.752045154571533, -3.8648486137390137, 99.9537124633789, -17.655054092407227, -10.822394371032715, -0.980224609375, -0.134033203125, -0.388671875, 0, 
693, 3617633959, 0.31738337874412537, 0.6080380082130432, -0.3986130952835083, 0.6088228225708008, 0.9999777674674988, 0.0063262032344937325, -0.0018207710236310959, -0.0010792799293994904, 0.06848257780075073, 0.040786147117614746, -0.03637343645095825, 8.204988479614258, 4.875690460205078, -4.410861015319824, 86.99565887451172, -25.038583755493164, -14.841866493225098, -0.97998046875, -0.141845703125, -0.3837890625, 0, 
694, 3617642292, 0.31398043036460876, 0.6114614009857178, -0.3950023651123047, 0.6095115542411804, 0.9999815821647644, 0.0056258877739310265, -0.0018535442650318146, -0.0013262610882520676, 0.07990831136703491, 0.03396385908126831, -0.03633427619934082, 9.575876235961914, 4.063933849334717, -4.400951385498047, 77.36507415771484, -25.489240646362305, -18.238239288330078, -0.97998046875, -0.145751953125, -0.377685546875, 0, 
695, 3617650625, 0.3112047612667084, 0.6143311262130737, -0.3915257155895233, 0.6102923154830933, 0.9999854564666748, 0.00500634778290987, -0.0013481732457876205, -0.0014980137348175049, 0.08302879333496094, 0.023892700672149658, -0.032172560691833496, 9.954344749450684, 2.8627853393554688, -3.8886284828186035, 68.8453140258789, -18.539546966552734, -20.6000919342041, -0.9775390625, -0.147705078125, -0.369384765625, 0, 
696, 3617658958, 0.3088718056678772, 0.6170308589935303, -0.38820788264274597, 0.6108731627464294, 0.9999879002571106, 0.0045229652896523476, -0.001149466261267662, -0.0015476774424314499, 0.08089423179626465, 0.016339123249053955, -0.02653324604034424, 9.700993537902832, 1.9613621234893799, -3.204138994216919, 62.19797897338867, -15.806992530822754, -21.28302764892578, -0.978759765625, -0.154052734375, -0.366943359375, 0, 
697, 3617667291, 0.30655577778816223, 0.6195265650749207, -0.38506844639778137, 0.6115006804466248, 0.999988853931427, 0.00434450339525938, -0.001123609021306038, -0.0014553796499967575, 0.07972615957260132, 0.008124232292175293, -0.0230485200881958, 9.56298542022705, 0.9768310189247131, -2.780923843383789, 59.74381637573242, -15.451407432556152, -20.013778686523438, -0.978271484375, -0.158447265625, -0.359130859375, 0, 
698, 3617675624, 0.30421411991119385, 0.6220400929450989, -0.3819894790649414, 0.6120492219924927, 0.9999891519546509, 0.004312663339078426, -0.0011327899992465973, -0.0013325586915016174, 0.07741260528564453, 0.0014033913612365723, -0.023197710514068604, 9.286499977111816, 0.16876965761184692, -2.7950901985168457, 59.305965423583984, -15.57766056060791, -18.324798583984375, -0.979248046875, -0.160888671875, -0.355224609375, 0, 
699, 3617683957, 0.3017355799674988, 0.6244009137153625, -0.3790009915828705, 0.612729549407959, 0.9999892711639404, 0.004333558492362499, -0.0011065676808357239, -0.001184733584523201, 0.07625788450241089, -0.002856910228729248, -0.026134908199310303, 9.148246765136719, -0.3456047773361206, -3.1449460983276367, 59.59331130981445, -15.217063903808594, -16.291969299316406, -0.9775390625, -0.164306640625, -0.350341796875, 0, 
700, 3617692290, 0.2991858720779419, 0.6266666650772095, -0.37596821784973145, 0.6135345101356506, 0.9999892115592957, 0.00443634856492281, -0.0009147915989160538, -0.0010046456009149551, 0.07480782270431519, -0.004180312156677246, -0.028841257095336914, 8.974637031555176, -0.5080000162124634, -3.4670629501342773, 61.00682830810547, -12.579834938049316, -13.815468788146973, -0.978515625, -0.166748046875, -0.344970703125, 0, 
701, 3617700623, 0.2966119349002838, 0.6286333799362183, -0.37296706438064575, 0.6146031618118286, 0.9999896287918091, 0.004430084489285946, -0.0006453730165958405, -0.0008654259145259857, 0.07260459661483765, 0.00016552209854125977, -0.034146666526794434, 8.710238456726074, 0.009235626086592674, -4.103461742401123, 60.920684814453125, -8.87490177154541, -11.900978088378906, -0.97900390625, -0.173095703125, -0.346435546875, 0, 
702, 3617708956, 0.29426732659339905, 0.63045334815979, -0.37009960412979126, 0.615598738193512, 0.9999909400939941, 0.004144755192101002, -0.0004945341497659683, -0.0008027069270610809, 0.06910336017608643, 0.004065215587615967, -0.03678399324417114, 8.290162086486816, 0.4762016534805298, -4.420359134674072, 56.99692916870117, -6.800625801086426, -11.038488388061523, -0.9755859375, -0.171630859375, -0.339111328125, 0, 
703, 3617717289, 0.2921140491962433, 0.6321422457695007, -0.36754941940307617, 0.6164194941520691, 0.9999926090240479, 0.003714769147336483, -0.0005958098918199539, -0.0008076746016740799, 0.06786978244781494, 0.005254209041595459, -0.039128005504608154, 8.141390800476074, 0.619652271270752, -4.702731132507324, 51.08391571044922, -8.19332218170166, -11.106795310974121, -0.975830078125, -0.176513671875, -0.333740234375, 0, 
704, 3617725622, 0.2902551591396332, 0.6338778734207153, -0.36505135893821716, 0.6169995069503784, 0.9999934434890747, 0.0034323958680033684, -0.0006347727030515671, -0.0009594745934009552, 0.07069355249404907, 0.006585657596588135, -0.04280662536621094, 8.479545593261719, 0.7808014154434204, -5.1450910568237305, 47.200828552246094, -8.729120254516602, -13.194281578063965, -0.975341796875, -0.179931640625, -0.333740234375, 0, 
705, 3617733955, 0.28860974311828613, 0.6356369853019714, -0.3624032437801361, 0.6175224184989929, 0.9999933242797852, 0.003366219811141491, -0.0005980245769023895, -0.0012913793325424194, 0.07388591766357422, 0.010296046733856201, -0.04552370309829712, 8.861804962158203, 1.2286251783370972, -5.472511291503906, 46.29079818725586, -8.223775863647461, -17.75848960876465, -0.973388671875, -0.18310546875, -0.330810546875, 0, 
706, 3617742288, 0.28733447194099426, 0.6374584436416626, -0.35942694544792175, 0.6179790496826172, 0.9999929070472717, 0.0033370768651366234, -0.0004158373922109604, -0.0016906876116991043, 0.0732189416885376, 0.011173009872436523, -0.04190021753311157, 8.782268524169922, 1.3388807773590088, -5.036345481872559, 45.89004898071289, -5.718417167663574, -23.249608993530273, -0.971435546875, -0.1875, -0.327392578125, 0, 
707, 3617750621, 0.2862491011619568, 0.639358639717102, -0.35634732246398926, 0.6183031797409058, 0.9999926090240479, 0.0032470179721713066, -0.00046747922897338867, -0.002014273777604103, 0.07084912061691284, 0.011964738368988037, -0.035813987255096436, 8.497332572937012, 1.4389824867248535, -4.306486129760742, 44.6515998840332, -6.428574562072754, -27.699430465698242, -0.969970703125, -0.19091796875, -0.321044921875, 0, 
708, 3617758954, 0.28530967235565186, 0.6413258910179138, -0.3533363938331604, 0.6184278726577759, 0.9999929666519165, 0.0030671535059809685, -0.0005874354392290115, -0.002067597582936287, 0.0749506950378418, 0.00899440050125122, -0.03575468063354492, 8.989681243896484, 1.0847989320755005, -4.299337863922119, 42.178165435791016, -8.078158378601074, -28.432708740234375, -0.96875, -0.19580078125, -0.321533203125, 0, 
709, 3617767287, 0.2843373417854309, 0.6432521343231201, -0.3504786491394043, 0.6185011863708496, 0.9999933838844299, 0.002957344986498356, -0.000652119517326355, -0.002016369253396988, 0.07616716623306274, 0.004431188106536865, -0.03292250633239746, 9.136773109436035, 0.5384981632232666, -3.958395481109619, 40.668128967285156, -8.967665672302246, -27.72823715209961, -0.96826171875, -0.19970703125, -0.31689453125, 0, 
710, 3617775620, 0.28348493576049805, 0.6451884508132935, -0.34780943393707275, 0.6183825731277466, 0.9999940991401672, 0.0027055377140641212, -0.0007916782051324844, -0.0019603949040174484, 0.07677549123764038, 0.008788764476776123, -0.02905595302581787, 9.208585739135742, 1.0633188486099243, -3.497018337249756, 37.205379486083984, -10.88681411743164, -26.958499908447266, -0.9677734375, -0.2041015625, -0.3134765625, 0, 
711, 3617783953, 0.28281471133232117, 0.6469449996948242, -0.3454296588897705, 0.6181881427764893, 0.999995231628418, 0.002326234243810177, -0.0007370617240667343, -0.0019074305891990662, 0.07831966876983643, 0.009538590908050537, -0.033020973205566406, 9.393621444702148, 1.1533784866333008, -3.9722745418548584, 31.98934555053711, -10.135746955871582, -26.230144500732422, -0.970458984375, -0.2109375, -0.30615234375, 0, 
712, 3617792286, 0.28233322501182556, 0.6486104130744934, -0.34324777126312256, 0.6178783178329468, 0.9999960064888, 0.0020216694101691246, -0.0007571019232273102, -0.001835256814956665, 0.07537859678268433, 0.010600388050079346, -0.03562349081039429, 9.040223121643066, 1.2800350189208984, -4.28439998626709, 27.801095962524414, -10.411328315734863, -25.237634658813477, -0.9658203125, -0.2119140625, -0.30615234375, 0, 
713, 3617800619, 0.28192365169525146, 0.6502843499183655, -0.3413466811180115, 0.6173587441444397, 0.9999964237213135, 0.0017271703109145164, -0.0009310469031333923, -0.00181601382791996, 0.07351422309875488, 0.014051318168640137, -0.02996724843978882, 8.815634727478027, 1.6960315704345703, -3.6073503494262695, 23.75127601623535, -12.80334186553955, -24.973012924194336, -0.965087890625, -0.21875, -0.30517578125, 0, 
714, 3617808952, 0.2817089855670929, 0.6520635485649109, -0.33956658840179443, 0.6165613532066345, 0.9999964237213135, 0.0014651762321591377, -0.0011662282049655914, -0.0019156448543071747, 0.07110196352005005, 0.01497870683670044, -0.02512669563293457, 8.525598526000977, 1.8094432353973389, -3.0279219150543213, 20.14845085144043, -16.037450790405273, -26.343095779418945, -0.963623046875, -0.21923828125, -0.30078125, 0, 
715, 3617817285, 0.28154507279396057, 0.6540089249610901, -0.3380359709262848, 0.6154157519340515, 0.9999961256980896, 0.0012030033394694328, -0.0015147551894187927, -0.0019883476197719574, 0.06540405750274658, 0.01344454288482666, -0.019415616989135742, 7.842052936553955, 1.626192569732666, -2.343787431716919, 16.54316520690918, -20.830238342285156, -27.34286880493164, -0.965087890625, -0.2216796875, -0.29638671875, 0, 
716, 3617825618, 0.2814238369464874, 0.6561800241470337, -0.3366592228412628, 0.6139131188392639, 0.9999954700469971, 0.0010271565988659859, -0.001949988305568695, -0.002041313797235489, 0.06598490476608276, 0.008340895175933838, -0.015032947063446045, 7.9129204750061035, 1.0152580738067627, -1.8205064535140991, 14.125004768371582, -26.815378189086914, -28.071245193481445, -0.961669921875, -0.22705078125, -0.291015625, 0, 
717, 3617833951, 0.2812008857727051, 0.6586175560951233, -0.33534321188926697, 0.6121225953102112, 0.9999944567680359, 0.0010311109945178032, -0.0023125410079956055, -0.002151837572455406, 0.06617534160614014, 0.0017696619033813477, -0.012706756591796875, 7.937355995178223, 0.22785459458827972, -1.5434331893920898, 14.179387092590332, -31.801050186157227, -29.591129302978516, -0.9609375, -0.2314453125, -0.28955078125, 0, 
718, 3617842284, 0.2808213233947754, 0.6614287495613098, -0.3339141607284546, 0.6100433468818665, 0.9999927282333374, 0.0012152520939707756, -0.0027933791279792786, -0.0022947564721107483, 0.06442517042160034, -0.006367385387420654, -0.012011170387268066, 7.729025840759277, -0.7481394410133362, -1.4620672464370728, 16.711624145507812, -38.41334533691406, -31.556501388549805, -0.96142578125, -0.234130859375, -0.27880859375, 0, 
719, 3617850617, 0.2800593376159668, 0.6646311283111572, -0.3323636054992676, 0.6077553629875183, 0.9999907612800598, 0.0015785479918122292, -0.003219129517674446, -0.0023695360869169235, 0.06850975751876831, -0.013818740844726562, -0.018725216388702393, 8.218155860900879, -1.6423892974853516, -2.270979404449463, 21.707529067993164, -44.26811981201172, -32.58486557006836, -0.9560546875, -0.236572265625, -0.27392578125, 0, 
720, 3617858950, 0.2791387140750885, 0.6678465008735657, -0.3305082321166992, 0.6056624054908752, 0.9999904632568359, 0.0019415700808167458, -0.003109138458967209, -0.00238705612719059, 0.07743918895721436, -0.018327534198760986, -0.03003871440887451, 9.287077903747559, -2.1842291355133057, -3.6294143199920654, 26.699661254882812, -42.755577087402344, -32.825801849365234, -0.956787109375, -0.243896484375, -0.26708984375, 0, 
721, 3617867283, 0.2779894769191742, 0.6708626747131348, -0.3282638192176819, 0.6040762662887573, 0.9999909996986389, 0.002436853013932705, -0.0025700200349092484, -0.002342797815799713, 0.07825678586959839, -0.018549680709838867, -0.02776014804840088, 9.387816429138184, -2.2121856212615967, -3.3500683307647705, 33.510581970214844, -35.34184265136719, -32.2171745300293, -0.958251953125, -0.247802734375, -0.2626953125, 0, 
722, 3617875616, 0.27662497758865356, 0.6736652255058289, -0.325753778219223, 0.6029414534568787, 0.9999912977218628, 0.0028353529050946236, -0.002181844785809517, -0.0021536890417337418, 0.07804602384567261, -0.01443028450012207, -0.025568842887878418, 9.362914085388184, -1.7202509641647339, -3.083914041519165, 38.990577697753906, -30.003808975219727, -29.616626739501953, -0.958251953125, -0.251708984375, -0.256591796875, 0, 
723, 3617883949, 0.2751519978046417, 0.676130473613739, -0.32327526807785034, 0.6021895408630371, 0.9999924898147583, 0.0029142023995518684, -0.0017108302563428879, -0.001900259405374527, 0.08435600996017456, -0.00883561372756958, -0.030435800552368164, 10.118880271911621, -1.0517454147338867, -3.6666667461395264, 40.07486343383789, -23.526607513427734, -26.131553649902344, -0.955078125, -0.258544921875, -0.250732421875, 0, 
724, 3617892282, 0.2738606631755829, 0.6780094504356384, -0.3207527697086334, 0.602014422416687, 0.999994158744812, 0.002849784679710865, -0.0009506866335868835, -0.0016421470791101456, 0.08759891986846924, -0.0014553070068359375, -0.023540973663330078, 10.509885787963867, -0.1654496192932129, -2.834526538848877, 39.18899917602539, -13.073429107666016, -22.58209228515625, -0.95361328125, -0.262939453125, -0.246337890625, 0, 
725, 3617900615, 0.27262043952941895, 0.67942214012146, -0.3183855414390564, 0.6022410988807678, 0.9999953508377075, 0.0027149012312293053, -0.0003638043999671936, -0.0013616885989904404, 0.08336097002029419, 0.006142914295196533, -0.017231404781341553, 10.00195598602295, 0.7451818585395813, -2.0734996795654297, 37.33412170410156, -5.002877235412598, -18.725339889526367, -0.955078125, -0.262451171875, -0.241943359375, 0, 
726, 3617908948, 0.27157339453697205, 0.6807683706283569, -0.3162671625614166, 0.6023101806640625, 0.9999962449073792, 0.002373351715505123, -0.000496886670589447, -0.0012771673500537872, 0.08113670349121094, 0.012629508972167969, -0.019711971282958984, 9.733677864074707, 1.5224138498306274, -2.3739705085754395, 32.63727951049805, -6.83296537399292, -17.563037872314453, -0.953125, -0.264892578125, -0.240478515625, 0, 
727, 3617917281, 0.2705598771572113, 0.6821797490119934, -0.3145475387573242, 0.6020698547363281, 0.9999969601631165, 0.0020221788436174393, -0.0007818201556801796, -0.0011826427653431892, 0.07553142309188843, 0.014503896236419678, -0.020405888557434082, 9.060148239135742, 1.7463054656982422, -2.4594318866729736, 27.808095932006836, -10.751240730285645, -16.263174057006836, -0.954345703125, -0.269287109375, -0.236083984375, 0, 
728, 3617925614, 0.26935768127441406, 0.683702826499939, -0.31324854493141174, 0.601558268070221, 0.9999971389770508, 0.0018507083877921104, -0.0012697894126176834, -0.0008386392146348953, 0.067299485206604, 0.016848623752593994, -0.014464020729064941, 8.072347640991211, 2.0254735946655273, -1.7497766017913818, 25.45010757446289, -17.461570739746094, -11.532588005065918, -0.950927734375, -0.27001953125, -0.231201171875, 0, 
729, 3617933947, 0.26762863993644714, 0.6855305433273315, -0.31250956654548645, 0.6006335616111755, 0.9999963045120239, 0.001819050870835781, -0.0019852016121149063, -0.00039147399365901947, 0.06311541795730591, 0.016994118690490723, -0.01763319969177246, 7.569149494171143, 2.0384812355041504, -2.134779214859009, 25.01477813720703, -27.29960823059082, -5.383375644683838, -0.952880859375, -0.27099609375, -0.228759765625, 0, 
730, 3617942280, 0.2656565308570862, 0.6876364946365356, -0.3119072914123535, 0.5994136333465576, 0.9999949336051941, 0.0018932567909359932, -0.002533355727791786, -0.0002717338502407074, 0.07532232999801636, 0.014148592948913574, -0.027749061584472656, 9.03012466430664, 1.694034457206726, -3.356116533279419, 26.035234451293945, -34.83759689331055, -3.736764430999756, -0.951416015625, -0.275390625, -0.220458984375, 0, 
731, 3617950613, 0.2637230157852173, 0.6894736289978027, -0.31113189458847046, 0.5985594987869263, 0.9999959468841553, 0.0020065857097506523, -0.0019937772303819656, -0.00027148984372615814, 0.07994544506072998, 0.011021316051483154, -0.03258228302001953, 9.585667610168457, 1.3173532485961914, -3.931806802749634, 27.59367561340332, -27.41754150390625, -3.733407974243164, -0.950927734375, -0.271484375, -0.218994140625, 0, 
732, 3617958946, 0.2619246244430542, 0.6909460425376892, -0.3101730942726135, 0.5981488227844238, 0.9999967813491821, 0.0020715584978461266, -0.0014479439705610275, -0.00020977482199668884, 0.07694977521896362, 0.00897979736328125, -0.029047906398773193, 9.229059219360352, 1.0723191499710083, -3.501497983932495, 28.48714256286621, -19.911476135253906, -2.8847293853759766, -0.9501953125, -0.27587890625, -0.209716796875, 0, 
733, 3617967279, 0.2603777348995209, 0.6920850872993469, -0.3093611001968384, 0.5979277491569519, 0.9999979138374329, 0.0017753290012478828, -0.0010020751506090164, -0.0001393333077430725, 0.07924509048461914, 0.012172400951385498, -0.02542191743850708, 9.506528854370117, 1.456651210784912, -3.0628623962402344, 24.41352081298828, -13.780083656311035, -1.9160486459732056, -0.95166015625, -0.2744140625, -0.208251953125, 0, 
734, 3617975612, 0.2593095600605011, 0.6927825808525085, -0.3086690902709961, 0.5979419350624084, 0.9999989867210388, 0.0013363026082515717, -0.0005341796204447746, -0.00011104997247457504, 0.07620245218276978, 0.01225900650024414, -0.025327205657958984, 9.142868995666504, 1.4680863618850708, -3.046243906021118, 18.376220703125, -7.3457932472229, -1.5271084308624268, -0.9541015625, -0.27294921875, -0.207763671875, 0, 
735, 3617983945, 0.25835078954696655, 0.693504810333252, -0.3083816468715668, 0.5976678729057312, 0.9999992847442627, 0.0009306194260716438, -0.0007381346076726913, -0.000007893890142440796, 0.07225388288497925, 0.01064234972000122, -0.02376699447631836, 8.668710708618164, 1.2745637893676758, -2.8596858978271484, 12.79745101928711, -10.150487899780273, -0.10855315625667572, -0.94970703125, -0.2734375, -0.203857421875, 0, 
736, 3617992278, 0.25747203826904297, 0.6941628456115723, -0.3085421025753021, 0.5972002744674683, 0.9999993443489075, 0.0005365489050745964, -0.0010065454989671707, 0.00025410111993551254, 0.07786625623703003, 0.013223528861999512, -0.024248957633972168, 9.341785430908203, 1.5829341411590576, -2.9202871322631836, 7.378373622894287, -13.841550827026367, 3.494281768798828, -0.951171875, -0.27197265625, -0.201904296875, 0, 
737, 3618000611, 0.2567487061023712, 0.6946135759353638, -0.3091605603694916, 0.5966672897338867, 0.999999463558197, 0.0000770939514040947, -0.0009119231253862381, 0.0005018645897507668, 0.08067518472671509, 0.014638781547546387, -0.022819876670837402, 9.679767608642578, 1.7515920400619507, -2.7475666999816895, 1.060160517692566, -12.540345191955566, 6.901410102844238, -0.95361328125, -0.27490234375, -0.200439453125, 0, 
738, 3618008944, 0.2562325596809387, 0.6948662996292114, -0.3101867735385895, 0.5960619449615479, 0.9999991655349731, -0.00037890300154685974, -0.0009706951677799225, 0.0007285671308636665, 0.07612890005111694, 0.016333162784576416, -0.019666671752929688, 9.134971618652344, 1.9543230533599854, -2.3681840896606445, -5.210499286651611, -13.348552703857422, 10.018918991088867, -0.9501953125, -0.27294921875, -0.199462890625, 0, 
739, 3618017277, 0.2556963562965393, 0.6952109932899475, -0.3117419183254242, 0.5950782299041748, 0.9999983310699463, -0.0007770713418722153, -0.0013402700424194336, 0.0009646853432059288, 0.07183122634887695, 0.014620363712310791, -0.019522666931152344, 8.618634223937988, 1.7480080127716064, -2.3530261516571045, -10.685931205749512, -18.430782318115234, 13.265913009643555, -0.95361328125, -0.27197265625, -0.200927734375, 0, 
740, 3618025610, 0.25524020195007324, 0.6954651474952698, -0.3135589361190796, 0.594021737575531, 0.9999977350234985, -0.001031259074807167, -0.0014687366783618927, 0.0011266069486737251, 0.0800471305847168, 0.011676013469696045, -0.024311602115631104, 9.60331916809082, 1.3933517932891846, -2.9302029609680176, -14.181407928466797, -20.197402954101562, 15.492588996887207, -0.9521484375, -0.26904296875, -0.198486328125, 0, 
741, 3618033943, 0.25486165285110474, 0.6955376267433167, -0.3153253495693207, 0.5931637287139893, 0.9999982118606567, -0.0010410156100988388, -0.0010931231081485748, 0.0011422624811530113, 0.08684706687927246, 0.009511053562164307, -0.027552902698516846, 10.419754028320312, 1.1329303979873657, -3.316666841506958, -14.315574645996094, -15.032133102416992, 15.707876205444336, -0.956298828125, -0.265625, -0.1923828125, 0, 
742, 3618042276, 0.25475385785102844, 0.6952580213546753, -0.3170684576034546, 0.5926085114479065, 0.9999983906745911, -0.001208057627081871, -0.0006746668368577957, 0.0011643273755908012, 0.08415460586547852, 0.009012103080749512, -0.02675539255142212, 10.098043441772461, 1.0735992193222046, -3.2162985801696777, -16.612659454345703, -9.277710914611816, 16.011301040649414, -0.95703125, -0.263671875, -0.194091796875, 0, 
743, 3618050609, 0.25469496846199036, 0.6948701739311218, -0.31888946890830994, 0.5921110510826111, 0.9999982714653015, -0.0012977980077266693, -0.0004784129559993744, 0.0012332340702414513, 0.08179807662963867, 0.011346042156219482, -0.02252274751663208, 9.816543579101562, 1.3529996871948242, -2.7057645320892334, -17.846729278564453, -6.578917026519775, 16.958873748779297, -0.9580078125, -0.26220703125, -0.19287109375, 0, 
744, 3618058942, 0.2546919286251068, 0.6942413449287415, -0.32079774141311646, 0.591819167137146, 0.9999980330467224, -0.0013837292790412903, -0.0002933945506811142, 0.0013955039903521538, 0.08143401145935059, 0.013580262660980225, -0.018812060356140137, 9.774072647094727, 1.61922025680542, -2.258152484893799, -19.028417587280273, -4.034628868103027, 19.190338134765625, -0.9599609375, -0.26171875, -0.19384765625, 0, 
745, 3618067275, 0.2546457350254059, 0.69352126121521, -0.3228534758090973, 0.5915655493736267, 0.9999977350234985, -0.0014508292078971863, -0.0001649223268032074, 0.0015623727813363075, 0.08156716823577881, 0.014934241771697998, -0.012566149234771729, 9.79098892211914, 1.779111623764038, -1.5070215463638306, -19.951148986816406, -2.267936944961548, 21.485042572021484, -0.95947265625, -0.2568359375, -0.196533203125, 0, 
746, 3618075608, 0.2548261880874634, 0.692528486251831, -0.32516583800315857, 0.5913843512535095, 0.9999969005584717, -0.001807158812880516, -0.000044774264097213745, 0.0017127515748143196, 0.07826465368270874, 0.015182971954345703, -0.009092509746551514, 9.395196914672852, 1.8079171180725098, -1.0882822275161743, -24.85123634338379, -0.6157156229019165, 23.552989959716797, -0.96240234375, -0.255859375, -0.198486328125, 0, 
747, 3618083941, 0.25523436069488525, 0.6914823055267334, -0.3278111517429352, 0.5909716486930847, 0.9999958872795105, -0.0022474918514490128, -0.00008538924157619476, 0.0017743902280926704, 0.07584577798843384, 0.012645721435546875, -0.010911822319030762, 9.104427337646484, 1.50435471534729, -1.3068509101867676, -30.906513214111328, -1.1742349863052368, 24.40062713623047, -0.966796875, -0.25048828125, -0.198486328125, 0, 
748, 3618092274, 0.2559812068939209, 0.690335214138031, -0.33071786165237427, 0.5903698205947876, 0.9999947547912598, -0.0027270447462797165, -0.00021094270050525665, 0.001732601784169674, 0.07561385631561279, 0.005127847194671631, -0.010898947715759277, 9.074809074401855, 0.6032027006149292, -1.308173656463623, -37.501121520996094, -2.9007914066314697, 23.825979232788086, -0.9658203125, -0.24755859375, -0.197998046875, 0, 
749, 3618100607, 0.25697752833366394, 0.689249575138092, -0.33376839756965637, 0.58948814868927, 0.9999939799308777, -0.003055904060602188, -0.00029845722019672394, 0.0016076872125267982, 0.07777070999145508, -0.0002205371856689453, -0.014528930187225342, 9.33228874206543, -0.0361369326710701, -1.7464169263839722, -42.023468017578125, -4.104254245758057, 22.108217239379883, -0.966796875, -0.24365234375, -0.199462890625, 0, 
750, 3618108940, 0.25810912251472473, 0.6883138418197632, -0.3367888331413269, 0.5883681178092957, 0.9999938011169434, -0.0031773895025253296, -0.0005943942815065384, 0.0013808561488986015, 0.07673782110214233, -0.007003605365753174, -0.013844668865203857, 9.20674991607666, -0.8479008674621582, -1.669586181640625, -43.6940803527832, -8.17385196685791, 18.988933563232422, -0.96826171875, -0.23779296875, -0.197509765625, 0, 
751, 3618117273, 0.2591620087623596, 0.6878201961517334, -0.33978012204170227, 0.5867605209350586, 0.9999937415122986, -0.003150399774312973, -0.0011145826429128647, 0.001150679774582386, 0.07685840129852295, -0.014501333236694336, -0.013406157493591309, 9.219573974609375, -1.7457540035247803, -1.6245651245117188, -43.32292938232422, -15.32725715637207, 15.823648452758789, -0.967529296875, -0.236328125, -0.205322265625, 0, 
752, 3618125606, 0.25998085737228394, 0.6876609921455383, -0.3427572548389435, 0.5848502516746521, 0.9999935030937195, -0.003003079444169998, -0.0016892049461603165, 0.0010679876431822777, 0.07915538549423218, -0.019135594367980957, -0.0160180926322937, 9.493306159973145, -2.300713539123535, -1.945210576057434, -41.29704666137695, -23.229211807250977, 14.686501502990723, -0.96923828125, -0.2333984375, -0.202392578125, 0, 
753, 3618133939, 0.2603854835033417, 0.6879177093505859, -0.34567806124687195, 0.5826452374458313, 0.9999935030937195, -0.0026724040508270264, -0.002169908955693245, 0.0010685594752430916, 0.08543705940246582, -0.021079063415527344, -0.019764304161071777, 10.244982719421387, -2.534177541732788, -2.4008212089538574, -36.749752044677734, -29.83965492248535, 14.69437026977539, -0.96923828125, -0.23681640625, -0.199462890625, 0, 
754, 3618142272, 0.2605038583278656, 0.6883053779602051, -0.3485109210014343, 0.5804426670074463, 0.999993622303009, -0.0023950375616550446, -0.0024130288511514664, 0.0011141831055283546, 0.09121352434158325, -0.02149909734725952, -0.024346590042114258, 10.936095237731934, -2.5851693153381348, -2.9543330669403076, -32.93552017211914, -33.18292999267578, 15.32176399230957, -0.970703125, -0.2353515625, -0.198974609375, 0, 
755, 3618150605, 0.2603335976600647, 0.6889010667800903, -0.35139626264572144, 0.57806795835495, 0.9999932050704956, -0.0022277534008026123, -0.0026744380593299866, 0.0012109512463212013, 0.09145534038543701, -0.01936638355255127, -0.023501574993133545, 10.964681625366211, -2.331040143966675, -2.8548474311828613, -30.635103225708008, -36.77771759033203, 16.652477264404297, -0.97021484375, -0.23193359375, -0.194580078125, 0, 
756, 3618158938, 0.2596760094165802, 0.689601719379425, -0.35431504249572754, 0.5757420063018799, 0.9999927282333374, -0.0018718577921390533, -0.0029733795672655106, 0.0014811651781201363, 0.09170520305633545, -0.014737904071807861, -0.019495666027069092, 10.995443344116211, -1.7805168628692627, -2.3756165504455566, -25.74098777770996, -40.888641357421875, 20.368350982666016, -0.97509765625, -0.229736328125, -0.193359375, 0, 
757, 3618167271, 0.25850236415863037, 0.6904641389846802, -0.3573109805583954, 0.5733802318572998, 0.9999921321868896, -0.0015269797295331955, -0.0032012518495321274, 0.0017696144059300423, 0.09421706199645996, -0.008720457553863525, -0.014554619789123535, 11.2990083694458, -1.0638084411621094, -1.784404993057251, -20.99837303161621, -44.02225112915039, 24.334980010986328, -0.9755859375, -0.220703125, -0.18310546875, 0, 
758, 3618175604, 0.25702887773513794, 0.6912933588027954, -0.36023491621017456, 0.5712099075317383, 0.9999921321868896, -0.0012228228151798248, -0.0032313335686922073, 0.0019483854994177818, 0.09714597463607788, -0.008703768253326416, -0.014406681060791016, 11.650304794311523, -1.0650769472122192, -1.767825722694397, -16.81574058532715, -44.4359245300293, 26.793367385864258, -0.9794921875, -0.221923828125, -0.18359375, 0, 
759, 3618183937, 0.25537803769111633, 0.6921061277389526, -0.3629481792449951, 0.5692450404167175, 0.9999931454658508, -0.0009059682488441467, -0.0029989928007125854, 0.001965467818081379, 0.09890103340148926, -0.01011568307876587, -0.01958918571472168, 11.859108924865723, -1.2351129055023193, -2.387490749359131, -12.45848560333252, -41.2408561706543, 27.02826690673828, -0.97998046875, -0.216796875, -0.17626953125, 0, 
760, 3618192270, 0.253771036863327, 0.6928307414054871, -0.3652661442756653, 0.5675971508026123, 0.9999945759773254, -0.0006228238344192505, -0.0027030520141124725, 0.0017773592844605446, 0.10776382684707642, -0.012580275535583496, -0.021692335605621338, 12.922416687011719, -1.5310333967208862, -2.6390585899353027, -8.564800262451172, -37.17119216918945, 24.44146728515625, -0.98291015625, -0.2119140625, -0.17333984375, 0, 
761, 3618200603, 0.25254663825035095, 0.6932913064956665, -0.3670755624771118, 0.5664123296737671, 0.999997079372406, -0.0004928596317768097, -0.0018759239464998245, 0.0014232592657208443, 0.1213843822479248, -0.014538586139678955, -0.017911314964294434, 14.560171127319336, -1.7643448114395142, -2.1775991916656494, -6.777584075927734, -25.796863555908203, 19.572023391723633, -0.98046875, -0.21142578125, -0.171875, 0, 
762, 3618208936, 0.2517891228199005, 0.6931281685829163, -0.3682403862476349, 0.5661932229995728, 0.9999991059303284, -0.00025890395045280457, -0.0006064660847187042, 0.0011832183226943016, 0.12026435136795044, -0.016802489757537842, -0.010693013668060303, 14.429102897644043, -2.0332388877868652, -1.2925539016723633, -3.560328483581543, -8.33984375, 16.271076202392578, -0.981689453125, -0.2099609375, -0.1669921875, 0, 
763, 3618217269, 0.2511552572250366, 0.6927129626274109, -0.3689734637737274, 0.566505491733551, 0.999999463558197, 0.000036201439797878265, 0.00014268141239881516, 0.0010401764884591103, 0.10856395959854126, -0.02092045545578003, -0.00783926248550415, 13.025715827941895, -2.524127960205078, -0.9388008713722229, 0.4978255033493042, 1.9620890617370605, 14.304027557373047, -0.981201171875, -0.2060546875, -0.1689453125, 0, 
764, 3618225602, 0.25042593479156494, 0.692272961139679, -0.36942344903945923, 0.567072868347168, 0.9999994039535522, 0.0003466131165623665, 0.00028552208095788956, 0.0009720092639327049, 0.09707373380661011, -0.024546146392822266, -0.0041468143463134766, 11.646623611450195, -2.957010269165039, -0.49334263801574707, 4.766463279724121, 3.926367998123169, 13.366622924804688, -0.98095703125, -0.20458984375, -0.16845703125, 0, 
765, 3618233935, 0.24932672083377838, 0.6920574903488159, -0.3699495792388916, 0.5674769282341003, 0.9999992251396179, 0.0005582990124821663, -0.00003483891487121582, 0.0011061644181609154, 0.09172379970550537, -0.023729443550109863, 0.002892136573791504, 11.00412654876709, -2.8597302436828613, 0.34828972816467285, 7.677470684051514, -0.4790887236595154, 15.211464881896973, -0.984130859375, -0.20361328125, -0.16748046875, 0, 
766, 3618242268, 0.24783232808113098, 0.6919941306114197, -0.3706247806549072, 0.567768394947052, 0.9999986886978149, 0.0007404377683997154, -0.0004580169916152954, 0.0013537397608160973, 0.09241771697998047, -0.02351856231689453, 0.0019937753677368164, 11.086847305297852, -2.837188243865967, 0.23627442121505737, 10.182162284851074, -6.298440456390381, 18.616010665893555, -0.989990234375, -0.200439453125, -0.16650390625, 0, 
767, 3618250601, 0.24604995548725128, 0.6920632123947144, -0.3713887631893158, 0.5679599046707153, 0.9999982714653015, 0.0008863722905516624, -0.0006649233400821686, 0.0014943210408091545, 0.08840984106063843, -0.020671546459197998, -0.004883706569671631, 10.605504989624023, -2.4970407485961914, -0.5909131765365601, 12.188987731933594, -9.143721580505371, 20.549222946166992, -0.984375, -0.19482421875, -0.16650390625, 0, 
768, 3618258934, 0.24408110976219177, 0.6922204494476318, -0.3722917437553406, 0.5680266618728638, 0.9999977350234985, 0.0009105624631047249, -0.0009709019213914871, 0.001643444411456585, 0.08329302072525024, -0.015044987201690674, -0.000980675220489502, 9.992469787597656, -1.821997046470642, -0.1257358342409134, 12.52164363861084, -13.351404190063477, 22.599905014038086, -0.990478515625, -0.197021484375, -0.16357421875, 0, 
769, 3618267267, 0.24198023974895477, 0.6924673318862915, -0.3733072876930237, 0.5679581761360168, 0.9999974966049194, 0.0009094318374991417, -0.0011346712708473206, 0.001714424230158329, 0.08812254667282104, -0.009365618228912354, -0.0003364086151123047, 10.573136329650879, -1.1421338319778442, -0.05136889964342117, 12.506096839904785, -15.60348892211914, 23.575990676879883, -0.988525390625, -0.19091796875, -0.16064453125, 0, 
770, 3618275600, 0.2400546371936798, 0.6925859451293945, -0.37426522374153137, 0.568000316619873, 0.9999977946281433, 0.0008310945704579353, -0.000963142141699791, 0.0016652802005410194, 0.09717625379562378, -0.005983531475067139, -0.008881151676177979, 11.659384727478027, -0.7383111119270325, -1.0763834714889526, 11.428836822509766, -13.244695663452148, 22.90018081665039, -0.98876953125, -0.1875, -0.162109375, 0, 
771, 3618283933, 0.23847967386245728, 0.6924954652786255, -0.3751544654369354, 0.5681871175765991, 0.9999985098838806, 0.0006305379793047905, -0.000547291710972786, 0.001514366827905178, 0.10027223825454712, -0.004582345485687256, -0.010815918445587158, 12.031601905822754, -0.5688800811767578, -1.3041754961013794, 8.670872688293457, -7.526106834411621, 20.82488441467285, -0.989501953125, -0.18603515625, -0.1552734375, 0, 
772, 3618292266, 0.23741792142391205, 0.6920984387397766, -0.3758957087993622, 0.5686254501342773, 0.9999990463256836, 0.00038126390427351, -0.000020205974578857422, 0.0013124989345669746, 0.09680598974227905, -0.0025017857551574707, -0.009511828422546387, 11.616754531860352, -0.31598541140556335, -1.1415839195251465, 5.242966175079346, -0.2778632640838623, 18.04888343811035, -0.991943359375, -0.1845703125, -0.15576171875, 0, 
773, 3618300599, 0.2368488609790802, 0.6914408802986145, -0.3767296373844147, 0.5691107511520386, 0.9999992251396179, -0.00005714595317840576, 0.0003667892888188362, 0.0011903280392289162, 0.08755195140838623, -0.00029736757278442383, -0.013296902179718018, 10.50719165802002, -0.048061344772577286, -1.5918527841567993, -0.7858449816703796, 5.043918132781982, 16.368844985961914, -0.992919921875, -0.1787109375, -0.15576171875, 0, 
774, 3618308932, 0.23668137192726135, 0.6908422708511353, -0.377748966217041, 0.5692317485809326, 0.9999993443489075, -0.0005630254745483398, 0.000145801343023777, 0.0009966874495148659, 0.08560097217559814, -0.0022783279418945312, -0.011004924774169922, 10.272443771362305, -0.28297296166419983, -1.319292426109314, -7.742467880249023, 2.004993200302124, 13.705987930297852, -0.98974609375, -0.177734375, -0.15771484375, 0, 
775, 3618317265, 0.23675119876861572, 0.6903602480888367, -0.37888607382774353, 0.5690317749977112, 0.9999992847442627, -0.0008875597268342972, -0.00004233419895172119, 0.0008111456409096718, 0.08864635229110718, -0.0063683390617370605, -0.010108232498168945, 10.637308120727539, -0.7718497514724731, -1.214176893234253, -12.205313682556152, -0.582160472869873, 11.154502868652344, -0.9921875, -0.173828125, -0.1572265625, 0, 
776, 3618325598, 0.2370336502790451, 0.6898477673530579, -0.38012441992759705, 0.568709671497345, 0.9999990463256836, -0.0011456850916147232, -0.00009091012179851532, 0.0007545119151473045, 0.08798575401306152, -0.011992692947387695, -0.013515889644622803, 10.55748462677002, -1.445246934890747, -1.6245650053024292, -15.754938125610352, -1.2501542568206787, 10.375702857971191, -0.9931640625, -0.17529296875, -0.15966796875, 0, 
777, 3618333931, 0.23750831186771393, 0.6892982721328735, -0.38153424859046936, 0.5682336688041687, 0.9999986886978149, -0.0014424994587898254, -0.00010970793664455414, 0.0007315473631024361, 0.08846390247344971, -0.017887890338897705, -0.017807424068450928, 10.614290237426758, -2.1513044834136963, -2.141231060028076, -19.836591720581055, -1.5086535215377808, 10.059905052185059, -0.99462890625, -0.17236328125, -0.15673828125, 0, 
778, 3618342264, 0.23804494738578796, 0.6887503266334534, -0.38290926814079285, 0.5677483677864075, 0.9999986886978149, -0.001469150185585022, -0.00011894106864929199, 0.0006789984181523323, 0.0859948992729187, -0.022418320178985596, -0.016154110431671143, 10.317749977111816, -2.6944448947906494, -1.9437309503555298, -20.203081130981445, -1.6356232166290283, 9.337275505065918, -0.99169921875, -0.17138671875, -0.15966796875, 0, 
779, 3618350597, 0.23845966160297394, 0.6883385181427002, -0.38420432806015015, 0.567198634147644, 0.9999988675117493, -0.0013322029262781143, -0.00023709610104560852, 0.0006146589294075966, 0.08532100915908813, -0.023533940315246582, -0.013912320137023926, 10.236800193786621, -2.8282454013824463, -1.675727128982544, -18.31984519958496, -3.26043701171875, 8.452508926391602, -0.9951171875, -0.17138671875, -0.158203125, 0, 
780, 3618358930, 0.23872968554496765, 0.6880285739898682, -0.3853208124637604, 0.5667034983634949, 0.9999992251396179, -0.001085866242647171, -0.0003014504909515381, 0.0005587944760918617, 0.08316588401794434, -0.020248591899871826, -0.010257482528686523, 9.978577613830566, -2.4341585636138916, -1.2365862131118774, -14.93233585357666, -4.145409107208252, 7.684286594390869, -0.99462890625, -0.16796875, -0.16064453125, 0, 
781, 3618367263, 0.2387910932302475, 0.6879357099533081, -0.3863452970981598, 0.5660926103591919, 0.9999993443489075, -0.0008846558630466461, -0.0005341824144124985, 0.0004868479445576668, 0.07835543155670166, -0.01789677143096924, -0.009378969669342041, 9.401371955871582, -2.1512954235076904, -1.1324784755706787, -12.165380477905273, -7.345830917358398, 6.69490909576416, -0.994140625, -0.16748046875, -0.1572265625, 0, 
782, 3618375596, 0.23864229023456573, 0.6881317496299744, -0.38728252053260803, 0.5652763247489929, 0.9999992251396179, -0.0006992034614086151, -0.0009276438504457474, 0.0004008086398243904, 0.07553797960281372, -0.015098392963409424, -0.01088559627532959, 9.062965393066406, -1.8146146535873413, -1.3160629272460938, -9.615123748779297, -12.75653076171875, 5.511735916137695, -0.99169921875, -0.1669921875, -0.162109375, 0, 
783, 3618383929, 0.2382877767086029, 0.6885328888893127, -0.38819894194602966, 0.564307689666748, 0.9999990463256836, -0.0005590617656707764, -0.0011990070343017578, 0.0003682216629385948, 0.07507914304733276, -0.015434563159942627, -0.011204898357391357, 9.007567405700684, -1.854773998260498, -1.3564276695251465, -7.687962055206299, -16.488197326660156, 5.063615798950195, -0.994140625, -0.1650390625, -0.15625, 0, 
784, 3618392262, 0.2377527356147766, 0.6890077590942383, -0.3890078067779541, 0.5633959174156189, 0.9999990463256836, -0.00033146701753139496, -0.0012700464576482773, 0.00039961282163858414, 0.07473939657211304, -0.01928532123565674, -0.014467477798461914, 8.965958595275879, -2.3173303604125977, -1.7482914924621582, -4.558182239532471, -17.465097427368164, 5.4952921867370605, -0.9951171875, -0.16796875, -0.15478515625, 0, 
785, 3618400595, 0.23690788447856903, 0.689497172832489, -0.38967573642730713, 0.5626908540725708, 0.9999991655349731, 0.00004146900027990341, -0.0012018214911222458, 0.0004998380318284035, 0.07597148418426514, -0.02850353717803955, -0.01854175329208374, 9.112544059753418, -3.425217628479004, -2.2359302043914795, 0.570262610912323, -16.526899337768555, 6.873543739318848, -0.9990234375, -0.1630859375, -0.15380859375, 0, 
786, 3618408928, 0.23575392365455627, 0.6899321675300598, -0.39002111554145813, 0.5624030828475952, 0.9999992251396179, 0.0005896398797631264, -0.0009485594928264618, 0.0005922345444560051, 0.08127212524414062, -0.035381317138671875, -0.0243646502494812, 9.747715950012207, -4.253480911254883, -2.930666208267212, 8.108458518981934, -13.044156074523926, 8.14413833618164, -0.996826171875, -0.1640625, -0.14990234375, 0, 
787, 3618417261, 0.23432619869709015, 0.6902325749397278, -0.39002248644828796, 0.5626302361488342, 0.9999989867210388, 0.0011357078328728676, -0.0005237143486738205, 0.0006568608805537224, 0.0845712423324585, -0.041676223278045654, -0.027233898639678955, 10.143951416015625, -5.011729717254639, -3.2678282260894775, 15.617733001708984, -7.201879501342773, 9.03285026550293, -0.9970703125, -0.16015625, -0.15087890625, 0, 
788, 3618425594, 0.23261334002017975, 0.6903642416000366, -0.38961082696914673, 0.5634640455245972, 0.999998152256012, 0.0017674462869763374, -0.000043839216232299805, 0.0007659560069441795, 0.0875895619392395, -0.04276430606842041, -0.028235197067260742, 10.507071495056152, -5.1460041999816895, -3.379711627960205, 24.30512046813965, -0.6028570532798767, 10.533080101013184, -0.997314453125, -0.162109375, -0.1494140625, 0, 
789, 3618433927, 0.23055455088615417, 0.6903287768363953, -0.38888636231422424, 0.5648525953292847, 0.9999967813491821, 0.0023515624925494194, 0.00039118435233831406, 0.000903313048183918, 0.08726930618286133, -0.03883969783782959, -0.029280543327331543, 10.469893455505371, -4.678654670715332, -3.498739242553711, 32.3376350402832, 5.379392623901367, 12.421958923339844, -0.998779296875, -0.16064453125, -0.1455078125, 0, 
790, 3618442260, 0.228257417678833, 0.6902686953544617, -0.3879748284816742, 0.5664833784103394, 0.9999956488609314, 0.002718481235206127, 0.0005028722807765007, 0.0010099569335579872, 0.08376342058181763, -0.03220731019973755, -0.02886861562728882, 10.04983901977539, -3.8846070766448975, -3.4487757682800293, 37.38335037231445, 6.915276527404785, 13.888479232788086, -0.996826171875, -0.1552734375, -0.14453125, 0, 
791, 3618450593, 0.22563494741916656, 0.6904733180999756, -0.38710328936576843, 0.5678790211677551, 0.9999953508377075, 0.0028789201751351357, 0.00007633212953805923, 0.001019415445625782, 0.08137708902359009, -0.02347618341445923, -0.0260164737701416, 9.763001441955566, -2.8361783027648926, -3.1132328510284424, 39.58964157104492, 1.0496858358383179, 14.01855182647705, -0.997314453125, -0.154296875, -0.1455078125, 0, 
792, 3618458926, 0.22275055944919586, 0.6910154223442078, -0.3863144516944885, 0.568894624710083, 0.9999949336051941, 0.0029524946585297585, -0.00051875039935112, 0.0010550273582339287, 0.07923990488052368, -0.017377376556396484, -0.023066401481628418, 9.505525588989258, -2.1035778522491455, -2.766836404800415, 40.60140609741211, -7.133627414703369, 14.508271217346191, -1.001220703125, -0.15234375, -0.1435546875, 0, 
793, 3618467259, 0.21959872543811798, 0.6917995810508728, -0.38570794463157654, 0.5695781111717224, 0.9999945163726807, 0.002947143279016018, -0.0010079052299261093, 0.001113765873014927, 0.07799369096755981, -0.014067471027374268, -0.024477362632751465, 9.35477066040039, -1.7072399854660034, -2.9418375492095947, 40.52782440185547, -13.860271453857422, 15.316021919250488, -1.003662109375, -0.14990234375, -0.14111328125, 0, 
794, 3618475592, 0.2163051962852478, 0.6928194165229797, -0.3851269483566284, 0.5699917674064636, 0.9999939203262329, 0.0029904665425419807, -0.0014110468327999115, 0.0011137714609503746, 0.07716774940490723, -0.014781594276428223, -0.027391016483306885, 9.253866195678711, -1.79403555393219, -3.294801950454712, 41.123600006103516, -19.404104232788086, 15.316102027893066, -1.002197265625, -0.14501953125, -0.1357421875, 0, 
795, 3618483925, 0.21276266872882843, 0.6940025091171265, -0.38447272777557373, 0.5703274011611938, 0.9999930262565613, 0.003197397105395794, -0.0016161110252141953, 0.0010721003636717796, 0.07833510637283325, -0.015770912170410156, -0.029391705989837646, 9.392849922180176, -1.913936972618103, -3.536254405975342, 43.96923065185547, -22.224063873291016, 14.743062973022461, -1.002197265625, -0.14404296875, -0.12939453125, 0, 
796, 3618492258, 0.20924553275108337, 0.6952214241027832, -0.38367509841918945, 0.570681095123291, 0.9999927878379822, 0.0032885493710637093, -0.0016056876629590988, 0.0010011615231633186, 0.0806313157081604, -0.01595669984817505, -0.03136056661605835, 9.668172836303711, -1.9369508028030396, -3.772629737854004, 45.22272491455078, -22.080730438232422, 13.767544746398926, -0.998779296875, -0.142578125, -0.1298828125, 0, 
797, 3618500591, 0.2057323157787323, 0.6962427496910095, -0.38283032178878784, 0.5712804198265076, 0.9999930262565613, 0.0033531012013554573, -0.0012869853526353836, 0.0010393941774964333, 0.08313733339309692, -0.014719784259796143, -0.035809099674224854, 9.969501495361328, -1.7912242412567139, -4.3041486740112305, 46.11040496826172, -17.698068618774414, 14.293303489685059, -0.999755859375, -0.14111328125, -0.122802734375, 0, 
798, 3618508924, 0.20240066945552826, 0.6970080137252808, -0.3819078803062439, 0.5721541047096252, 0.9999934434890747, 0.003335886634886265, -0.0008880440145730972, 0.0010899892076849937, 0.08426940441131592, -0.01708817481994629, -0.03803962469100952, 10.106430053710938, -2.0769307613372803, -4.567047119140625, 45.87367630004883, -12.211997985839844, 14.989062309265137, -1.00439453125, -0.13720703125, -0.115966796875, 0, 
799, 3618517257, 0.1990826278924942, 0.6975352764129639, -0.3809005320072174, 0.5733460187911987, 0.9999933242797852, 0.003436141647398472, -0.0004807896912097931, 0.0011237068101763725, 0.08637720346450806, -0.019222021102905273, -0.03963208198547363, 10.360794067382812, -2.3347008228302, -4.7530670166015625, 47.2523307800293, -6.611611843109131, 15.452729225158691, -1.004150390625, -0.13623046875, -0.118408203125, 0, 
800, 3618525590, 0.19589796662330627, 0.6978274583816528, -0.37976735830307007, 0.5748372673988342, 0.9999932050704956, 0.003494621254503727, -0.00008804537355899811, 0.0011630887165665627, 0.08530539274215698, -0.022182881832122803, -0.037049055099487305, 10.233561515808105, -2.6894590854644775, -4.437638759613037, 48.056522369384766, -1.2107620239257812, 15.994293212890625, -1.00439453125, -0.13427734375, -0.114013671875, 0, 
801, 3618533923, 0.19271217286586761, 0.6978725790977478, -0.37869569659233093, 0.5765635967254639, 0.9999930262565613, 0.003489387221634388, 0.00023648422211408615, 0.0012907451018691063, 0.08546251058578491, -0.02670341730117798, -0.035956501960754395, 10.252784729003906, -3.2327957153320312, -4.3013224601745605, 47.98455047607422, 3.2520294189453125, 17.749771118164062, -1.00537109375, -0.126953125, -0.109619140625, 0, 
802, 3618542256, 0.18961137533187866, 0.6976929903030396, -0.37755411863327026, 0.5785542726516724, 0.9999926090240479, 0.003538751043379307, 0.0005652317777276039, 0.001384788192808628, 0.08481788635253906, -0.025349915027618408, -0.03470367193222046, 10.176679611206055, -3.070909023284912, -4.148063659667969, 48.663387298583984, 7.772825241088867, 19.043012619018555, -1.00341796875, -0.129150390625, -0.111083984375, 0, 
803, 3618550589, 0.18641804158687592, 0.6974839568138123, -0.37641435861587524, 0.5805831551551819, 0.9999923706054688, 0.003599594347178936, 0.0006078528240323067, 0.0013988958671689034, 0.07932049036026001, -0.022230803966522217, -0.029611945152282715, 9.517251968383789, -2.6939001083374023, -3.5381503105163574, 49.500083923339844, 8.358933448791504, 19.237018585205078, -1.0009765625, -0.123291015625, -0.105712890625, 0, 
804, 3618558922, 0.18317565321922302, 0.6974793076515198, -0.375169575214386, 0.5824236273765564, 0.9999923706054688, 0.0036735283210873604, 0.0003247847780585289, 0.001301034353673458, 0.07637816667556763, -0.01919543743133545, -0.028338313102722168, 9.16384220123291, -2.3279404640197754, -3.389267921447754, 50.516788482666016, 4.466301441192627, 17.891267776489258, -1.003662109375, -0.121337890625, -0.110107421875, 0, 
805, 3618567255, 0.17984704673290253, 0.6977145671844482, -0.373811811208725, 0.5840498805046082, 0.9999923706054688, 0.0037515023723244667, 0.00006044190376996994, 0.0010814899578690529, 0.07570439577102661, -0.01872009038925171, -0.028066694736480713, 9.08265495300293, -2.2689666748046875, -3.359125852584839, 51.58905792236328, 0.8311712145805359, 14.872187614440918, -1.00634765625, -0.116455078125, -0.103759765625, 0, 
806, 3618575588, 0.17660963535308838, 0.6981717944145203, -0.3721449077129364, 0.5855540633201599, 0.9999921917915344, 0.0038741016760468483, -0.00010112300515174866, 0.0007692696526646614, 0.07501614093780518, -0.01934349536895752, -0.029262125492095947, 9.000150680541992, -2.3418383598327637, -3.5034830570220947, 53.27499008178711, -1.3906004428863525, 10.578666687011719, -1.00830078125, -0.119140625, -0.106689453125, 0, 
807, 3618583921, 0.17326124012470245, 0.6988537311553955, -0.3701639473438263, 0.5869947075843811, 0.9999912977218628, 0.004140445031225681, -0.00022508762776851654, 0.000457066111266613, 0.07719379663467407, -0.021235227584838867, -0.02987802028656006, 9.261651039123535, -2.5673985481262207, -3.577011823654175, 56.93764877319336, -3.0953099727630615, 6.285379886627197, -1.00732421875, -0.111572265625, -0.099365234375, 0, 
808, 3618592254, 0.1699870079755783, 0.6995576024055481, -0.3677438199520111, 0.5886325240135193, 0.9999901652336121, 0.004434423521161079, -0.00003425218164920807, 0.00019568577408790588, 0.07917529344558716, -0.02181953191757202, -0.030270814895629883, 9.500776290893555, -2.6363959312438965, -3.621332883834839, 60.9803466796875, -0.47102174162864685, 2.6909892559051514, -1.0068359375, -0.110595703125, -0.101806640625, 0, 
809, 3618600587, 0.16674289107322693, 0.7001633048057556, -0.36500492691993713, 0.5905417799949646, 0.9999890327453613, 0.004673074930906296, 0.0003178603947162628, -0.000027426518499851227, 0.08007580041885376, -0.02170640230178833, -0.03247159719467163, 9.61078929901123, -2.622790813446045, -3.881495237350464, 64.26219940185547, 4.371085166931152, -0.37715816497802734, -1.01025390625, -0.113037109375, -0.098388671875, 0, 
810, 3618608920, 0.1635446399450302, 0.7006832361221313, -0.36192792654037476, 0.5927093625068665, 0.9999876618385315, 0.004931665025651455, 0.0005833348259329796, -0.00015234388411045074, 0.07834690809249878, -0.021830976009368896, -0.03198319673538208, 9.404640197753906, -2.637281656265259, -3.819709300994873, 67.81825256347656, 8.021782875061035, -2.094971179962158, -1.0107421875, -0.110107421875, -0.095458984375, 0, 
811, 3618617253, 0.16019366681575775, 0.7011892795562744, -0.35878118872642517, 0.5949352383613586, 0.9999868273735046, 0.005088058300316334, 0.0006297333166003227, -0.00016243383288383484, 0.07937043905258179, -0.02007603645324707, -0.03133821487426758, 9.527591705322266, -2.4267799854278564, -3.7424464225769043, 69.96893310546875, 8.659838676452637, -2.233724594116211, -1.00732421875, -0.109619140625, -0.097900390625, 0, 
812, 3618625586, 0.15691536664962769, 0.7014955282211304, -0.3556181788444519, 0.5973421931266785, 0.9999866485595703, 0.005090528167784214, 0.0008631804957985878, -0.000050090253353118896, 0.08356565237045288, -0.0166284441947937, -0.030938267707824707, 10.031579971313477, -2.013866901397705, -3.693885087966919, 70.00289916992188, 11.870111465454102, -0.688821017742157, -1.00830078125, -0.110595703125, -0.096435546875, 0, 
813, 3618633919, 0.15378817915916443, 0.7015339136123657, -0.3526938557624817, 0.5998388528823853, 0.9999877214431763, 0.004821562208235264, 0.001145348884165287, 0.00006856117397546768, 0.08263325691223145, -0.014070570468902588, -0.02867436408996582, 9.920204162597656, -1.7057713270187378, -3.4215381145477295, 66.30416107177734, 15.750373840332031, 0.942825436592102, -1.0107421875, -0.111083984375, -0.094970703125, 0, 
814, 3618642252, 0.15111486613750458, 0.7012863755226135, -0.34997421503067017, 0.6023953557014465, 0.99998939037323, 0.004367816261947155, 0.001444782130420208, 0.00011776108294725418, 0.07995444536209106, -0.01197582483291626, -0.024504244327545166, 9.59898853302002, -1.4511088132858276, -2.92045521736145, 60.06440353393555, 19.868045806884766, 1.6194016933441162, -1.0087890625, -0.108154296875, -0.094970703125, 0, 
815, 3618650585, 0.14878712594509125, 0.7008611559867859, -0.34749487042427063, 0.6048995852470398, 0.9999909400939941, 0.003926503472030163, 0.001643872819840908, 0.00006541144102811813, 0.07608151435852051, -0.009709954261779785, -0.02144676446914673, 9.134288787841797, -1.1759158372879028, -2.5541186332702637, 53.9956169128418, 22.60584259033203, 0.8995104432106018, -1.0087890625, -0.108642578125, -0.095458984375, 0, 
816, 3618658918, 0.14673298597335815, 0.7004778385162354, -0.34503963589668274, 0.6072462797164917, 0.9999920129776001, 0.0036806920543313026, 0.0015555312857031822, -0.00005424581468105316, 0.07331210374832153, -0.00894474983215332, -0.019433796405792236, 8.801481246948242, -1.0814995765686035, -2.3144965171813965, 50.61531066894531, 21.391002655029297, -0.7459653615951538, -1.00927734375, -0.110595703125, -0.098876953125, 0, 
817, 3618667251, 0.14480267465114594, 0.700197160243988, -0.3426259458065033, 0.6093962788581848, 0.9999927878379822, 0.00350829865783453, 0.001436217688024044, -0.0002292674034833908, 0.07236367464065552, -0.008204877376556396, -0.01804870367050171, 8.687317848205566, -0.9902141094207764, -2.149995803833008, 48.24461364746094, 19.750247955322266, -3.1527867317199707, -1.0087890625, -0.106201171875, -0.097900390625, 0, 
818, 3618675584, 0.1430797129869461, 0.7000297904014587, -0.3401574194431305, 0.6113752722740173, 0.9999934434890747, 0.0033619021996855736, 0.0012822942808270454, -0.00039294734597206116, 0.07387048006057739, -0.007075130939483643, -0.01806420087814331, 8.867921829223633, -0.8528413772583008, -2.153550386428833, 46.23143005371094, 17.63355827331543, -5.403642177581787, -1.00732421875, -0.108642578125, -0.101318359375, 0, 
819, 3618683917, 0.14141340553760529, 0.6999853849411011, -0.33766302466392517, 0.613193690776825, 0.9999937415122986, 0.0032945657148957253, 0.0011612018570303917, -0.0005723368376493454, 0.07463186979293823, -0.009000897407531738, -0.015249550342559814, 8.958916664123535, -1.081037163734436, -1.816072940826416, 45.30543518066406, 15.968343734741211, -7.8705267906188965, -1.00732421875, -0.107666015625, -0.098876953125, 0, 
820, 3618692250, 0.13987846672534943, 0.7000118494033813, -0.33512282371520996, 0.6149066686630249, 0.9999940991401672, 0.003211625851690769, 0.0010514361783862114, -0.0006621032953262329, 0.07671838998794556, -0.00982588529586792, -0.014963030815124512, 9.209239959716797, -1.1788098812103271, -1.7821645736694336, 44.16488265991211, 14.458892822265625, -9.10495662689209, -1.00439453125, -0.110107421875, -0.101806640625, 0, 
821, 3618700583, 0.13836362957954407, 0.7000311017036438, -0.3327328860759735, 0.616523265838623, 0.9999945759773254, 0.0030661365017294884, 0.001016334630548954, -0.0006388295441865921, 0.07731753587722778, -0.010499298572540283, -0.01296168565750122, 9.280858039855957, -1.2587929964065552, -1.5421643257141113, 42.16416549682617, 13.976189613342285, -8.784904479980469, -1.00390625, -0.107666015625, -0.097412109375, 0, 
822, 3618708916, 0.1369163691997528, 0.6999996900558472, -0.3304178714752197, 0.6181249618530273, 0.9999949336051941, 0.0029663201421499252, 0.001007217913866043, -0.000554732047021389, 0.07832217216491699, -0.010938107967376709, -0.009312033653259277, 9.400887489318848, -1.3107105493545532, -1.104114294052124, 40.791534423828125, 13.850818634033203, -7.628431797027588, -1.00634765625, -0.109619140625, -0.101806640625, 0, 
823, 3618717249, 0.1354176551103592, 0.6998350620269775, -0.32819586992263794, 0.6198229193687439, 0.9999948740005493, 0.002953477203845978, 0.001167183741927147, -0.00045649800449609756, 0.07894164323806763, -0.012536466121673584, -0.007718920707702637, 9.475133895874023, -1.502833366394043, -0.910825788974762, 40.61492156982422, 16.050600051879883, -6.277559757232666, -1.0048828125, -0.110595703125, -0.101318359375, 0, 
824, 3618725582, 0.13403837382793427, 0.6994014382362366, -0.3259473741054535, 0.621795654296875, 0.9999944567680359, 0.0029450105503201485, 0.0015290295705199242, -0.0003677811473608017, 0.07760077714920044, -0.012466371059417725, -0.01004183292388916, 9.314849853515625, -1.4961298704147339, -1.1864222288131714, 40.498497009277344, 21.026546478271484, -5.057566165924072, -1.00341796875, -0.108642578125, -0.099365234375, 0, 
825, 3618733915, 0.13274382054805756, 0.6987631320953369, -0.3237188756465912, 0.6239513754844666, 0.9999940395355225, 0.002900758758187294, 0.0018456950783729553, -0.00036862585693597794, 0.07373255491256714, -0.01121830940246582, -0.010337352752685547, 8.851032257080078, -1.3465672731399536, -1.2203036546707153, 39.88997268676758, 25.381196975708008, -5.0691819190979, -1.00732421875, -0.109130859375, -0.102294921875, 0, 
826, 3618742248, 0.13166594505310059, 0.6980088353157043, -0.3213562071323395, 0.626241147518158, 0.999993622303009, 0.0028658341616392136, 0.002063324674963951, -0.0004889583215117455, 0.06962472200393677, -0.01031804084777832, -0.006495296955108643, 8.357499122619629, -1.2363450527191162, -0.7587011456489563, 39.409706115722656, 28.373947143554688, -6.72394323348999, -1.007080078125, -0.107666015625, -0.104736328125, 0, 
827, 3618750581, 0.13080105185508728, 0.6971547603607178, -0.3189306855201721, 0.6286094188690186, 0.9999933242797852, 0.002764449454843998, 0.0022911252453923225, -0.0006749387830495834, 0.06678426265716553, -0.009905219078063965, -0.008254170417785645, 8.017487525939941, -1.1859816312789917, -0.9688847661018372, 38.0155143737793, 31.506563186645508, -9.281466484069824, -1.005615234375, -0.108642578125, -0.109619140625, 0, 
828, 3618758914, 0.13014115393161774, 0.6961775422096252, -0.31637459993362427, 0.6311160326004028, 0.9999927878379822, 0.0027357637882232666, 0.0025137346237897873, -0.0007863091304898262, 0.06385940313339233, -0.011950135231018066, -0.0116538405418396, 7.668059825897217, -1.4318515062332153, -1.3753235340118408, 37.62105178833008, 34.56779861450195, -10.81298542022705, -1.002685546875, -0.114501953125, -0.114990234375, 0, 
829, 3618767247, 0.12948817014694214, 0.6951974034309387, -0.3137497007846832, 0.6336358785629272, 0.9999924898147583, 0.002774404361844063, 0.002566944807767868, -0.0008852044120430946, 0.06391274929046631, -0.015513062477111816, -0.011126697063446045, 7.674892902374268, -1.8585306406021118, -1.310386300086975, 38.15241622924805, 35.29952621459961, -12.172951698303223, -1.002685546875, -0.111083984375, -0.116455078125, 0, 
830, 3618775580, 0.12892064452171326, 0.694233238697052, -0.31096112728118896, 0.636178195476532, 0.9999921321868896, 0.002831636928021908, 0.0025894539430737495, -0.0010059606283903122, 0.06606775522232056, -0.016265451908111572, -0.011279046535491943, 7.933892250061035, -1.9477628469467163, -1.327480673789978, 38.939456939697266, 35.609066009521484, -13.833539962768555, -1.003173828125, -0.112548828125, -0.117431640625, 0, 
831, 3618783913, 0.12839949131011963, 0.6933097243309021, -0.3080688416957855, 0.63869309425354, 0.9999918341636658, 0.0028587225824594498, 0.002602687105536461, -0.0011721523478627205, 0.06754934787750244, -0.015382707118988037, -0.013772189617156982, 8.112691879272461, -1.8411906957626343, -1.6263341903686523, 39.31193923950195, 35.791046142578125, -16.118940353393555, -1.005126953125, -0.11328125, -0.12255859375, 0, 
832, 3618792246, 0.12800569832324982, 0.6924751996994019, -0.30494940280914307, 0.6411697864532471, 0.9999914765357971, 0.0029186345636844635, 0.0025575347244739532, -0.0013948669657111168, 0.06922286748886108, -0.009413421154022217, -0.011126101016998291, 8.312044143676758, -1.1219332218170166, -1.3106286525726318, 40.135826110839844, 35.17013168334961, -19.18161964416504, -1.000732421875, -0.118408203125, -0.12548828125, 0, 
833, 3618800579, 0.12779483199119568, 0.6916183829307556, -0.3016802668571472, 0.6436783075332642, 0.9999908208847046, 0.0028917528688907623, 0.0026986226439476013, -0.0016534151509404182, 0.07326960563659668, -0.0067955851554870605, -0.009235203266143799, 8.797014236450195, -0.8041359782218933, -1.0821759700775146, 39.76616668701172, 37.11032485961914, -22.737070083618164, -1.002685546875, -0.12109375, -0.12841796875, 0, 
834, 3618808912, 0.1277022659778595, 0.690735399723053, -0.298172265291214, 0.646274209022522, 0.999989926815033, 0.0029897894710302353, 0.002812393009662628, -0.0018272893503308296, 0.07438170909881592, -0.00418931245803833, -0.0006236433982849121, 8.927255630493164, -0.48663273453712463, -0.04826272279024124, 41.11433792114258, 38.67485427856445, -25.12811851501465, -1.00048828125, -0.12109375, -0.13330078125, 0, 
835, 3618817245, 0.12750943005084991, 0.6898627281188965, -0.2946249544620514, 0.648865818977356, 0.9999896287918091, 0.003082157112658024, 0.002806355245411396, -0.0018388442695140839, 0.07738035917282104, -0.011479020118713379, -0.007001340389251709, 9.290863037109375, -1.3630268573760986, -0.8099197149276733, 42.38454055786133, 38.59183120727539, -25.28702163696289, -1.00146484375, -0.12744140625, -0.13818359375, 0, 
836, 3618825578, 0.1270304173231125, 0.6889752149581909, -0.2910146713256836, 0.6515265107154846, 0.9999892711639404, 0.003341156058013439, 0.0027590757235884666, -0.001637810841202736, 0.07541799545288086, -0.012165725231170654, -0.0008869767189025879, 9.053170204162598, -1.4454433917999268, -0.07660697400569916, 45.94620132446289, 37.94166946411133, -22.522497177124023, -0.99951171875, -0.126953125, -0.13916015625, 0, 
837, 3618833911, 0.126242995262146, 0.6881522536277771, -0.2878338098526001, 0.6539581418037415, 0.9999911189079285, 0.0032134735956788063, 0.002440282143652439, -0.0012314841151237488, 0.06954973936080933, -0.0010235905647277832, 0.014210760593414307, 8.342268943786621, -0.10706138610839844, 1.7260937690734863, 44.190330505371094, 33.5577278137207, -16.93484878540039, -0.99609375, -0.12939453125, -0.142578125, 0, 
838, 3618842244, 0.12567469477653503, 0.687467634677887, -0.2854301929473877, 0.6558386087417603, 0.9999948740005493, 0.0024151382967829704, 0.0019100168719887733, -0.0009067654609680176, 0.06358706951141357, 0.006605744361877441, 0.01930391788482666, 7.625594615936279, 0.805253803730011, 2.3292200565338135, 33.21192169189453, 26.26571273803711, -12.469441413879395, -0.9951171875, -0.13134765625, -0.14599609375, 0, 
839, 3618850577, 0.12535902857780457, 0.6868228912353516, -0.28365594148635864, 0.6573423147201538, 0.9999969005584717, 0.0017239954322576523, 0.0016376357525587082, -0.0007378486916422844, 0.06431347131729126, 0.005916714668273926, 0.013552308082580566, 7.7147297859191895, 0.718539297580719, 1.6377512216567993, 23.707611083984375, 22.52003288269043, -10.146563529968262, -0.9931640625, -0.13232421875, -0.1474609375, 0, 
840, 3618858910, 0.1252458542585373, 0.68597012758255, -0.282156765460968, 0.658897876739502, 0.9999971985816956, 0.0013948660343885422, 0.0018132161349058151, -0.0005772439762949944, 0.06524085998535156, 0.0018238425254821777, 0.007353067398071289, 7.827477931976318, 0.22463251650333405, 0.8963065147399902, 19.181570053100586, 24.934532165527344, -7.9379987716674805, -0.99609375, -0.13720703125, -0.1494140625, 0, 
841, 3618867243, 0.12522277235984802, 0.6849294900894165, -0.28090888261795044, 0.6605158448219299, 0.9999972581863403, 0.0011592414230108261, 0.0019854623824357986, -0.0004362659528851509, 0.06110101938247681, 0.000877678394317627, 0.010022103786468506, 7.329968452453613, 0.10992994904518127, 1.2171530723571777, 15.941366195678711, 27.303184509277344, -5.999332427978516, -0.99560546875, -0.13671875, -0.1513671875, 0, 
842, 3618875576, 0.1254025101661682, 0.683872640132904, -0.27996113896369934, 0.6619775295257568, 0.9999978542327881, 0.0007785037159919739, 0.0018969997763633728, -0.00034682173281908035, 0.05584794282913208, -0.002497375011444092, 0.013115167617797852, 6.699132919311523, -0.2961472272872925, 1.5868163108825684, 10.705632209777832, 26.086681365966797, -4.7693352699279785, -0.99560546875, -0.13916015625, -0.15771484375, 0, 
843, 3618883909, 0.1257229894399643, 0.682911217212677, -0.2791888117790222, 0.6632343530654907, 0.9999983310699463, 0.0005184104666113853, 0.0017173690721392632, -0.0004003271460533142, 0.05130815505981445, -0.007516741752624512, 0.00916355848312378, 6.155694961547852, -0.8990179300308228, 1.1106764078140259, 7.128943920135498, 23.61647605895996, -5.5051164627075195, -0.9951171875, -0.13720703125, -0.1552734375, 0, 
844, 3618892242, 0.1261100471019745, 0.6822401881217957, -0.27830153703689575, 0.6642236709594727, 0.9999987483024597, 0.0005132276564836502, 0.0013688597828149796, -0.0006098216399550438, 0.05000412464141846, -0.007584989070892334, 0.0036451220512390137, 6.0006866455078125, -0.906358540058136, 0.44609320163726807, 7.057672500610352, 18.82393455505371, -8.385988235473633, -0.9921875, -0.1396484375, -0.16162109375, 0, 
845, 3618900575, 0.1265420913696289, 0.6817886829376221, -0.27721863985061646, 0.6650574803352356, 0.9999987483024597, 0.0005941148847341537, 0.0011552534997463226, -0.0008795885369181633, 0.05558401346206665, -0.009057998657226562, -0.0011711716651916504, 6.671467304229736, -1.0811887979507446, -0.13215333223342896, 8.169995307922363, 15.886518478393555, -12.095698356628418, -0.9931640625, -0.138671875, -0.16015625, 0, 
846, 3618908908, 0.12688788771629333, 0.6814600825309753, -0.2758144736289978, 0.6659117341041565, 0.9999984502792358, 0.0008906498551368713, 0.0011031478643417358, -0.001047045923769474, 0.06189548969268799, -0.010344147682189941, 0.0008669495582580566, 7.4289326667785645, -1.233492136001587, 0.11331463605165482, 12.247810363769531, 15.169984817504883, -14.398496627807617, -0.993896484375, -0.14208984375, -0.16748046875, 0, 
847, 3618917241, 0.12708571553230286, 0.681164026260376, -0.27409327030181885, 0.6668866276741028, 0.9999978542327881, 0.001237107440829277, 0.0011621825397014618, -0.0011830823495984077, 0.06565338373184204, -0.010014116764068604, -0.0004519820213317871, 7.88020133972168, -1.1924597024917603, -0.043573345988988876, 17.012144088745117, 15.981809616088867, -16.26921272277832, -0.99462890625, -0.14697265625, -0.16357421875, 0, 
848, 3618925574, 0.12700171768665314, 0.6810474395751953, -0.27206289768218994, 0.6678524613380432, 0.9999973773956299, 0.0016584601253271103, 0.000999297946691513, -0.0012312335893511772, 0.06964224576950073, -0.005473434925079346, 0.00041413307189941406, 8.358156204223633, -0.6464411616325378, 0.05915146321058273, 22.806400299072266, 13.741897583007812, -16.931371688842773, -0.990966796875, -0.142578125, -0.166015625, 0, 
849, 3618933907, 0.12667447328567505, 0.6809836626052856, -0.26997658610343933, 0.6688255667686462, 0.9999971985816956, 0.001867186278104782, 0.0009071920067071915, -0.0011439723894000053, 0.07755666971206665, -0.0013020634651184082, 0.001735985279083252, 9.307156562805176, -0.14518341422080994, 0.21707721054553986, 25.67670249938965, 12.475295066833496, -15.731392860412598, -0.992431640625, -0.146484375, -0.169921875, 0, 
850, 3618942240, 0.12621274590492249, 0.6808891296386719, -0.26795756816864014, 0.6698201894760132, 0.9999972581863403, 0.001918664202094078, 0.0009003356099128723, -0.0009735850617289543, 0.08559948205947876, 0.0011903047561645508, 0.003140389919281006, 10.271862030029297, 0.15359976887702942, 0.38585251569747925, 26.38460350036621, 12.381009101867676, -13.388301849365234, -0.989501953125, -0.14599609375, -0.166015625, 0, 
851, 3618950573, 0.12565498054027557, 0.680770993232727, -0.2661415934562683, 0.6707686185836792, 0.9999976754188538, 0.0018299072980880737, 0.0008282177150249481, -0.0007903212681412697, 0.08655768632888794, -0.001659989356994629, 0.010216295719146729, 10.386476516723633, -0.18877065181732178, 1.2349457740783691, 25.164060592651367, 11.389276504516602, -10.868141174316406, -0.988037109375, -0.1484375, -0.16943359375, 0, 
852, 3618958906, 0.1249907985329628, 0.6807324290275574, -0.2644534409046173, 0.6715990900993347, 0.9999979734420776, 0.0017978977411985397, 0.0006552096456289291, -0.0006482144817709923, 0.08383405208587646, -0.006140351295471191, 0.01322019100189209, 10.05992317199707, -0.7274913191795349, 1.5943995714187622, 24.723873138427734, 9.010146141052246, -8.913951873779297, -0.989501953125, -0.15087890625, -0.1708984375, 0, 
853, 3618967239, 0.12422624230384827, 0.6809220910072327, -0.2628486454486847, 0.6721782684326172, 0.9999982118606567, 0.0017694942653179169, 0.00028453394770622253, -0.0006303479894995689, 0.08462709188461304, -0.0050095319747924805, 0.006916701793670654, 10.155797004699707, -0.5933024287223816, 0.8339824676513672, 24.33327865600586, 3.9127814769744873, -8.668258666992188, -0.988037109375, -0.150390625, -0.16748046875, 0, 
854, 3618975572, 0.12352018058300018, 0.6810123324394226, -0.2613072991371155, 0.6728177666664124, 0.9999983310699463, 0.0016934834420681, 0.00040945224463939667, -0.0005781622603535652, 0.0837356448173523, -0.0015408992767333984, 0.001879274845123291, 10.048690795898438, -0.17872507870197296, 0.22994332015514374, 23.28801155090332, 5.630600929260254, -7.950623512268066, -0.988525390625, -0.1533203125, -0.16943359375, 0, 
855, 3618983905, 0.12290693074464798, 0.6808675527572632, -0.26001253724098206, 0.6735777258872986, 0.9999986290931702, 0.0014634057879447937, 0.0006287787109613419, -0.0004077395424246788, 0.08500325679779053, 0.002390444278717041, -0.003802359104156494, 10.200965881347656, 0.2903707027435303, -0.45028913021087646, 20.124088287353516, 8.64667797088623, -5.607048511505127, -0.986572265625, -0.15625, -0.169921875, 0, 
856, 3618992238, 0.12234672158956528, 0.6804649829864502, -0.25894084572792053, 0.6744988560676575, 0.9999987483024597, 0.0012907516211271286, 0.0009131096303462982, -0.00019356515258550644, 0.08417850732803345, 0.002109706401824951, -0.002831876277923584, 10.102083206176758, 0.2546926736831665, -0.33095628023147583, 17.749826431274414, 12.55666732788086, -2.6618194580078125, -0.988037109375, -0.15283203125, -0.16796875, 0, 
857, 3619000571, 0.12189541757106781, 0.6797519326210022, -0.25804752111434937, 0.6756407618522644, 0.9999985694885254, 0.001112290658056736, 0.0012632636353373528, -0.00004422105848789215, 0.0827336311340332, 0.0029091835021972656, -0.005768775939941406, 9.929285049438477, 0.3487901985645294, -0.6801424622535706, 15.295713424682617, 17.371824264526367, -0.6081078052520752, -0.989990234375, -0.1552734375, -0.17138671875, 0, 
858, 3619008904, 0.12159192562103271, 0.6789829134941101, -0.25734785199165344, 0.6767347455024719, 0.9999988079071045, 0.0008649099618196487, 0.0012989658862352371, 0.0000021494925022125244, 0.07901197671890259, 0.0018815994262695312, -0.006906747817993164, 9.482892036437988, 0.22506439685821533, -0.816679060459137, 11.893848419189453, 17.8627872467041, 0.02955884113907814, -0.986083984375, -0.154296875, -0.17333984375, 0, 
859, 3619017237, 0.12152412533760071, 0.6781814694404602, -0.2569546401500702, 0.6776991486549377, 0.9999991059303284, 0.0004576612263917923, 0.0012400243431329727, 0.00004303827881813049, 0.07847362756729126, 0.0017092227935791016, -0.004270613193511963, 9.417854309082031, 0.20447319746017456, -0.5008479952812195, 6.293547630310059, 17.052248001098633, 0.5918427109718323, -0.989990234375, -0.15673828125, -0.17333984375, 0, 
860, 3619025570, 0.12173659354448318, 0.6772663593292236, -0.2568998336791992, 0.6785963773727417, 0.9999991059303284, 0.000009689480066299438, 0.0013186614960432053, 0.00010388530790805817, 0.08286881446838379, -0.0003178715705871582, -0.007302582263946533, 9.945806503295898, -0.039192818105220795, -0.8631659746170044, 0.1332452893257141, 18.133628845214844, 1.4285831451416016, -0.986572265625, -0.15673828125, -0.17626953125, 0, 
