PacketCounter,SampleTimeFine,Quat_W,Quat_X,Quat_Y,Quat_Z,dq_W,dq_X,dq_Y,dq_Z,dv[1],dv[2],dv[3],Acc_X,Acc_Y,Acc_Z,Gyr_X,Gyr_Y,Gyr_Z,Mag_X,Mag_Y,Mag_Z,Status,
0, 3282996225, 0.07886987924575806, -0.6125611662864685, -0.0427648164331913, -0.7853159308433533, 0, 0, 0, 0, 0, 0, 0, 0, 0, 0, 0, 0, 0, -1.005859375, -0.277099609375, -0.181640625, 0, 
1, 3283004558, 0.07830292731523514, -0.6123114824295044, -0.04240789636969566, -0.7855867147445679, 0.9999997019767761, -0.0006195306777954102, 0.00036578159779310226, -0.00025857798755168915, 0.08059000968933105, -0.002581655979156494, 0.022999286651611328, 9.670239448547363, -0.3090055584907532, 2.7634365558624268, -8.519500732421875, 5.030059814453125, -3.5558454990386963, -1.0087890625, -0.276123046875, -0.18408203125, 0, 
2, 3283012891, 0.07771354168653488, -0.6120498776435852, -0.04203077778220177, -0.7858694195747375, 0.9999997019767761, -0.0006486289203166962, 0.0003830576315522194, -0.00026535987854003906, 0.07942944765090942, -0.002081930637359619, 0.022933244705200195, 9.53094482421875, -0.24911198019981384, 2.7555229663848877, -8.919645309448242, 5.267631530761719, -3.649106740951538, -1.0078125, -0.275146484375, -0.18408203125, 0, 
3, 3283021224, 0.07754451036453247, -0.6104356646537781, -0.04143841564655304, -0.7871708869934082, 0.9999996423721313, -0.0006838012486696243, 0.0003697378560900688, -0.00025126151740550995, 0.07864910364151001, -0.0013367533683776855, 0.02262777090072632, 9.437321662902832, -0.159912109375, 2.7187612056732178, -9.403318405151367, 5.084464073181152, -3.4552323818206787, -1.00927734375, -0.279052734375, -0.185546875, 0, 
4, 3283029557, 0.07690655440092087, -0.610226035118103, -0.040985677391290665, -0.7874196767807007, 0.9999996423721313, -0.0007398799061775208, 0.00032567698508501053, -0.0002537909895181656, 0.0780687928199768, -0.0003458857536315918, 0.021728456020355225, 9.367792129516602, -0.04106208682060242, 2.6105282306671143, -10.17448616027832, 4.478559494018555, -3.4900166988372803, -1.010009765625, -0.277099609375, -0.18798828125, 0, 
5, 3283037890, 0.07643445581197739, -0.6075648069381714, -0.04122938960790634, -0.789508044719696, 0.9999996423721313, -0.0007907338440418243, 0.0002547362819314003, -0.00021917186677455902, 0.07823866605758667, 0.00040209293365478516, 0.02096235752105713, 9.388358116149902, 0.04832175374031067, 2.518035650253296, -10.873807907104492, 3.503016233444214, -3.0139505863189697, -1.010498046875, -0.279541015625, -0.18798828125, 0, 
6, 3283046223, 0.07574422657489777, -0.6074557900428772, -0.040663570165634155, -0.7896876931190491, 0.9999995827674866, -0.0008651558309793472, 0.00021000858396291733, -0.00021946430206298828, 0.07870376110076904, 0.0004279017448425293, 0.020303308963775635, 9.444311141967773, 0.051314692944288254, 2.438507080078125, -11.897225379943848, 2.887941360473633, -3.017972230911255, -1.005615234375, -0.281494140625, -0.18798828125, 0, 
7, 3283054556, 0.07448370009660721, -0.6058439016342163, -0.04226133972406387, -0.790960967540741, 0.9999995231628418, -0.0009253192692995071, 0.00017787236720323563, -0.0002096816897392273, 0.07928699254989624, 0.0008690953254699707, 0.020604968070983887, 9.514361381530762, 0.10400452464818954, 2.474468469619751, -12.724563598632812, 2.446018695831299, -2.883445978164673, -1.006591796875, -0.276611328125, -0.189453125, 0, 
8, 3283062889, 0.07373809069395065, -0.6057901382446289, -0.04161582514643669, -0.7911062836647034, 0.9999995231628418, -0.0009644702076911926, 0.00014703627675771713, -0.00021167658269405365, 0.07995283603668213, 0.0002086162567138672, 0.020812034606933594, 9.594356536865234, 0.02466174028813839, 2.49895977973938, -13.26294994354248, 2.02197527885437, -2.910878896713257, -1.010009765625, -0.277099609375, -0.18896484375, 0, 
9, 3283071222, 0.07218341529369354, -0.6054257154464722, -0.04343387857079506, -0.7914308905601501, 0.9999995231628418, -0.000981166958808899, 0.00008788425475358963, -0.00019909441471099854, 0.08045977354049683, -0.0004177689552307129, 0.0197145938873291, 9.655360221862793, -0.05053471401333809, 2.366647720336914, -13.492555618286133, 1.2085436582565308, -2.737854480743408, -1.009033203125, -0.278076171875, -0.19140625, 0, 
10, 3283079555, 0.07142005115747452, -0.6054630279541016, -0.042758356779813766, -0.7915083765983582, 0.999999463558197, -0.0010029599070549011, 0.000032986514270305634, -0.00019918382167816162, 0.08098214864730835, -0.0008342266082763672, 0.018929898738861084, 9.718191146850586, -0.10045276582241058, 2.271897554397583, -13.792245864868164, 0.4536154270172119, -2.739084482192993, -1.008056640625, -0.281005859375, -0.19384765625, 0, 
11, 3283087888, 0.07024263590574265, -0.6057696342468262, -0.04408824071288109, -0.7913063168525696, 0.999999463558197, -0.0010110028088092804, 0.000027320347726345062, -0.0002184603363275528, 0.08141064643859863, -0.0023095011711120605, 0.020035624504089355, 9.769662857055664, -0.2774483859539032, 2.404357671737671, -13.902846336364746, 0.3756968677043915, -3.0041663646698, -1.009033203125, -0.279052734375, -0.1943359375, 0, 
12, 3283096221, 0.0694044902920723, -0.6057882905006409, -0.04340767487883568, -0.7914036512374878, 0.9999994039535522, -0.0010518822818994522, 0.00005516130477190018, -0.00025702081620693207, 0.08152693510055542, -0.0024449825286865234, 0.02113211154937744, 9.783557891845703, -0.2935608923435211, 2.5361835956573486, -14.465003967285156, 0.7585530281066895, -3.5344326496124268, -1.009521484375, -0.2783203125, -0.19677734375, 0, 
13, 3283104554, 0.06860125809907913, -0.6064646244049072, -0.043968647718429565, -0.7909244298934937, 0.9999993443489075, -0.0010886061936616898, 0.00012786034494638443, -0.000304175540804863, 0.08164781332015991, -0.0025568008422851562, 0.02127140760421753, 9.797898292541504, -0.30662915110588074, 2.5535807609558105, -14.970012664794922, 1.7582767009735107, -4.182883262634277, -1.008544921875, -0.277099609375, -0.1962890625, 0, 
14, 3283112887, 0.0676540657877922, -0.6063931584358215, -0.043308816850185394, -0.7910972237586975, 0.9999993443489075, -0.00109906867146492, 0.00016486365348100662, -0.00036404840648174286, 0.08086740970611572, -0.0024579763412475586, 0.02091813087463379, 9.704171180725098, -0.29419371485710144, 2.5115549564361572, -15.113885879516602, 2.2671291828155518, -5.0062255859375, -1.007568359375, -0.277099609375, -0.1953125, 0, 
15, 3283121220, 0.06706216931343079, -0.6068649888038635, -0.04325872287154198, -0.790788471698761, 0.9999992847442627, -0.0010952427983283997, 0.00017400365322828293, -0.00038489513099193573, 0.08052915334701538, -0.0018353462219238281, 0.01980990171432495, 9.663558006286621, -0.21914085745811462, 2.3787171840667725, -15.061275482177734, 2.392817974090576, -5.292901039123535, -1.008056640625, -0.281982421875, -0.19677734375, 0, 
16, 3283129553, 0.06608538329601288, -0.6067707538604736, -0.04261909797787666, -0.7909777760505676, 0.9999992847442627, -0.0011005252599716187, 0.00018997211009263992, -0.0004010051488876343, 0.07991307973861694, -0.0021728873252868652, 0.020307183265686035, 9.589595794677734, -0.2595999240875244, 2.4384868144989014, -15.133916854858398, 2.6124088764190674, -5.514437675476074, -1.004150390625, -0.278564453125, -0.19921875, 0, 
17, 3283137886, 0.06561992317438126, -0.6071776151657104, -0.04235883057117462, -0.7907183766365051, 0.9999992847442627, -0.0010984409600496292, 0.00019676145166158676, -0.0003996994346380234, 0.07951289415359497, -0.0021457672119140625, 0.01997917890548706, 9.541561126708984, -0.2563263475894928, 2.3991873264312744, -15.105257034301758, 2.705773115158081, -5.496482849121094, -1.006103515625, -0.282470703125, -0.20068359375, 0, 
18, 3283146219, 0.06466648727655411, -0.6070708632469177, -0.04173736646771431, -0.7909119129180908, 0.9999993443489075, -0.0010715704411268234, 0.00020228978246450424, -0.00039378367364406586, 0.07914936542510986, -0.002505362033843994, 0.019394099712371826, 9.497952461242676, -0.29941269755363464, 2.3289804458618164, -14.735743522644043, 2.7817959785461426, -5.41513204574585, -1.007080078125, -0.280029296875, -0.1982421875, 0, 
19, 3283154552, 0.06421351432800293, -0.607435405254364, -0.041304051876068115, -0.7906913757324219, 0.9999994039535522, -0.0010303296148777008, 0.00017870869487524033, -0.00036330148577690125, 0.07939034700393677, -0.0025652647018432617, 0.019205927848815918, 9.526924133300781, -0.3067612648010254, 2.306185722351074, -14.168619155883789, 2.457519769668579, -4.995954513549805, -1.007080078125, -0.2841796875, -0.2021484375, 0, 
20, 3283162885, 0.06336852163076401, -0.607355535030365, -0.04071268066763878, -0.7908515930175781, 0.999999463558197, -0.0009825024753808975, 0.00016365107148885727, -0.00032250769436359406, 0.07985794544219971, -0.0026885271072387695, 0.019471704959869385, 9.583057403564453, -0.32183676958084106, 2.3379569053649902, -13.510921478271484, 2.2504541873931885, -4.434977054595947, -1.008056640625, -0.2841796875, -0.20458984375, 0, 
21, 3283171218, 0.06304788589477539, -0.6077336072921753, -0.040183279663324356, -0.7906138896942139, 0.9999995231628418, -0.000932835042476654, 0.00017347466200590134, -0.0002747531980276108, 0.08029007911682129, -0.0027947425842285156, 0.020300745964050293, 9.634861946105957, -0.3350052535533905, 2.437556743621826, -12.827919006347656, 2.3855438232421875, -3.7782797813415527, -1.003662109375, -0.286376953125, -0.20263671875, 0, 
22, 3283179551, 0.06232301518321037, -0.6076305508613586, -0.03960311412811279, -0.7907798290252686, 0.9999995231628418, -0.0008993986994028091, 0.00018977094441652298, -0.0002350248396396637, 0.08027106523513794, -0.0028934478759765625, 0.020272910594940186, 9.632535934448242, -0.3471526801586151, 2.434352159500122, -12.368117332458496, 2.609642744064331, -3.2319536209106445, -1.004150390625, -0.281005859375, -0.20654296875, 0, 
23, 3283187884, 0.062037236988544464, -0.6079379916191101, -0.0389481820166111, -0.7905985713005066, 0.9999995827674866, -0.0008659195154905319, 0.0002191709354519844, -0.00020117498934268951, 0.08063393831253052, -0.003328382968902588, 0.02060258388519287, 9.676002502441406, -0.39961573481559753, 2.4741756916046143, -11.907727241516113, 3.0139377117156982, -2.766465902328491, -1.008056640625, -0.28125, -0.20849609375, 0, 
24, 3283196217, 0.061393942683935165, -0.6077793836593628, -0.03837348520755768, -0.7907987833023071, 0.9999995827674866, -0.0008434336632490158, 0.0002577817067503929, -0.00017774663865566254, 0.08136218786239624, -0.003418147563934326, 0.020421385765075684, 9.763297080993652, -0.41052430868148804, 2.452821731567383, -11.598508834838867, 3.5448946952819824, -2.444289445877075, -1.003173828125, -0.284423828125, -0.20263671875, 0, 
25, 3283204550, 0.06106051057577133, -0.6079229712486267, -0.03757105767726898, -0.7907527089118958, 0.9999995827674866, -0.0008190739899873734, 0.00035479944199323654, -0.00016334280371665955, 0.08159887790679932, -0.00349271297454834, 0.02038031816482544, 9.791447639465332, -0.41955238580703735, 2.448908805847168, -11.263527870178223, 4.879038333892822, -2.2462151050567627, -1.004150390625, -0.282470703125, -0.2099609375, 0, 
26, 3283212883, 0.06044149026274681, -0.6076229214668274, -0.03699959069490433, -0.791057825088501, 0.9999995827674866, -0.000821426510810852, 0.00043442752212285995, -0.00017209351062774658, 0.08140593767166138, -0.002740800380706787, 0.02048403024673462, 9.768089294433594, -0.3292486071586609, 2.462160110473633, -11.295878410339355, 5.9740471839904785, -2.3665506839752197, -1.005615234375, -0.28271484375, -0.20751953125, 0, 
27, 3283221216, 0.06001679599285126, -0.607646107673645, -0.03608735650777817, -0.791114330291748, 0.9999995231628418, -0.0008476525545120239, 0.0004727831110358238, -0.00018700771033763885, 0.08101361989974976, -0.002302229404449463, 0.01952981948852539, 9.72096061706543, -0.27644896507263184, 2.3480632305145264, -11.656526565551758, 6.501494884490967, -2.571643829345703, -1.0029296875, -0.282958984375, -0.21240234375, 0, 
28, 3283229549, 0.059324659407138824, -0.6073193550109863, -0.03550005704164505, -0.791443943977356, 0.999999463558197, -0.0008774753659963608, 0.0004692086949944496, -0.0002222452312707901, 0.08059912919998169, -0.0018237829208374023, 0.019057929515838623, 9.671253204345703, -0.21872060000896454, 2.2914040088653564, -12.066637992858887, 6.452342510223389, -3.0562143325805664, -1.0048828125, -0.283203125, -0.212890625, 0, 
29, 3283237882, 0.058717358857393265, -0.6073388457298279, -0.03455136716365814, -0.7915164828300476, 0.999999463558197, -0.0009209103882312775, 0.00046344008296728134, -0.0002503860741853714, 0.08048874139785767, -0.0012421011924743652, 0.01968085765838623, 9.65796947479248, -0.1488143503665924, 2.366163492202759, -12.663934707641602, 6.373014450073242, -3.4431939125061035, -1.0009765625, -0.285400390625, -0.21142578125, 0, 
30, 3283246215, 0.057943195104599, -0.6070312857627869, -0.033923856914043427, -0.7918365597724915, 0.9999994039535522, -0.0009598564356565475, 0.0004480471834540367, -0.0002611447125673294, 0.07982653379440308, -0.0005968809127807617, 0.01930677890777588, 9.578543663024902, -0.0713522732257843, 2.321135997772217, -13.199505805969238, 6.16133975982666, -3.591142416000366, -1.00439453125, -0.28466796875, -0.21533203125, 0, 
31, 3283254548, 0.05729963257908821, -0.6070865392684937, -0.03304370492696762, -0.7918781042098999, 0.9999994039535522, -0.001001136377453804, 0.00041912589222192764, -0.00026269257068634033, 0.07973873615264893, -0.0006756782531738281, 0.01817876100540161, 9.568132400512695, -0.0807550847530365, 2.185482978820801, -13.767168045043945, 5.763626575469971, -3.612427234649658, -1.005859375, -0.28515625, -0.2158203125, 0, 
32, 3283262881, 0.056474003940820694, -0.6067837476730347, -0.03235591948032379, -0.7921978235244751, 0.9999993443489075, -0.001039089635014534, 0.00044605229049921036, -0.00026458315551280975, 0.08020496368408203, -0.0008262991905212402, 0.017936646938323975, 9.62405014038086, -0.09885308891534805, 2.1566503047943115, -14.289082527160645, 6.133905410766602, -3.638425588607788, -1.0029296875, -0.28564453125, -0.21630859375, 0, 
33, 3283271214, 0.05573592707514763, -0.6067915558815002, -0.03147900477051735, -0.7922793626785278, 0.9999992847442627, -0.0010728798806667328, 0.0004940079525113106, -0.00024763308465480804, 0.08060461282730103, -0.0009480118751525879, 0.017959535121917725, 9.671900749206543, -0.11368420720100403, 2.1598992347717285, -14.753751754760742, 6.793370246887207, -3.405336380004883, -1.00244140625, -0.283203125, -0.21728515625, 0, 
34, 3283279547, 0.05487964674830437, -0.606411337852478, -0.030723921954631805, -0.7926598191261292, 0.9999992251396179, -0.0011085644364356995, 0.0005474360659718513, -0.00025351159274578094, 0.08043861389160156, -0.0010398030281066895, 0.018716633319854736, 9.651830673217773, -0.12482532858848572, 2.251188278198242, -15.244470596313477, 7.52808952331543, -3.486175298690796, -1.00439453125, -0.2861328125, -0.22509765625, 0, 
35, 3283287880, 0.054088059812784195, -0.6063591241836548, -0.02987503632903099, -0.7927867770195007, 0.9999991059303284, -0.0011489298194646835, 0.0006072008982300758, -0.0002645496279001236, 0.08023500442504883, -0.0011598467826843262, 0.0189284086227417, 9.627242088317871, -0.1392519772052765, 2.27718448638916, -15.799554824829102, 8.349946975708008, -3.637964963912964, -1.00048828125, -0.28271484375, -0.22509765625, 0, 
36, 3283296213, 0.05315518379211426, -0.6059289574623108, -0.02906866930425167, -0.793208658695221, 0.9999990463256836, -0.0011942721903324127, 0.0006127795204520226, -0.0002863183617591858, 0.07955902814865112, -0.0014266371726989746, 0.019129157066345215, 9.546110153198242, -0.17121315002441406, 2.301217555999756, -16.423086166381836, 8.426664352416992, -3.937319755554199, -1.00244140625, -0.28173828125, -0.22607421875, 0, 
37, 3283304546, 0.05225475877523422, -0.6058719158172607, -0.02821953035891056, -0.7933424711227417, 0.9999989867210388, -0.0012557469308376312, 0.0006107715889811516, -0.0003201346844434738, 0.0792352557182312, -0.001177370548248291, 0.019495069980621338, 9.507223129272461, -0.1411862075328827, 2.3451426029205322, -17.26845359802246, 8.399049758911133, -4.402344703674316, -1.00390625, -0.28662109375, -0.22802734375, 0, 
38, 3283312879, 0.051195356994867325, -0.6054507493972778, -0.027372993528842926, -0.7937626838684082, 0.999998927116394, -0.0013033468276262283, 0.000603371299803257, -0.0003615524619817734, 0.07889854907989502, -0.0016480088233947754, 0.01905655860900879, 9.466887474060059, -0.19732649624347687, 2.292362928390503, -17.92302703857422, 8.297285079956055, -4.971903324127197, -1.00146484375, -0.2861328125, -0.23095703125, 0, 
39, 3283321212, 0.04968658834695816, -0.6054286956787109, -0.026159901171922684, -0.7939162850379944, 0.9999988675117493, -0.0013296622782945633, 0.0005622701719403267, -0.0003946274518966675, 0.07863098382949829, -0.0022870898246765137, 0.017927944660186768, 9.4349946975708, -0.2736031413078308, 2.15636944770813, -18.2849063873291, 7.732082366943359, -5.426735877990723, -0.999755859375, -0.287109375, -0.234375, 0, 
40, 3283329545, 0.04852209985256195, -0.6050594449043274, -0.025322359055280685, -0.7942968606948853, 0.9999988079071045, -0.0013614818453788757, 0.0005350066348910332, -0.00044614821672439575, 0.0791858434677124, -0.0030661821365356445, 0.017761707305908203, 9.501709938049316, -0.3666294813156128, 2.136045455932617, -18.722475051879883, 7.357166290283203, -6.135225772857666, -1.0009765625, -0.2880859375, -0.232421875, 0, 
41, 3283337878, 0.04705405235290527, -0.6050173044204712, -0.024261539801955223, -0.7944504618644714, 0.9999987483024597, -0.0013676024973392487, 0.0005725910887122154, -0.0005018636584281921, 0.07939571142196655, -0.0036216378211975098, 0.018408536911010742, 9.526820182800293, -0.432860404253006, 2.2139620780944824, -18.8066463470459, 7.874011039733887, -6.901400089263916, -1.0029296875, -0.287109375, -0.234375, 0, 
42, 3283346211, 0.04581332206726074, -0.6045706868171692, -0.02351425215601921, -0.7948852777481079, 0.9999987483024597, -0.001333797350525856, 0.0006232345476746559, -0.0005650147795677185, 0.07971584796905518, -0.004301548004150391, 0.019004523754119873, 9.56515884399414, -0.5138583183288574, 2.2858805656433105, -18.341772079467773, 8.570436477661133, -7.769824981689453, -1.004150390625, -0.2880859375, -0.23828125, 0, 
43, 3283354544, 0.04439793899655342, -0.6044676303863525, -0.022624623030424118, -0.7950697541236877, 0.9999987483024597, -0.0013070441782474518, 0.0006435466930270195, -0.0006246306002140045, 0.07936924695968628, -0.004592299461364746, 0.019084632396697998, 9.523563385009766, -0.5481554865837097, 2.295638084411621, -17.973875045776367, 8.849760055541992, -8.589634895324707, -0.998291015625, -0.29150390625, -0.240478515625, 0, 
44, 3283362877, 0.0430954247713089, -0.603995680809021, -0.0219707153737545, -0.7955182790756226, 0.9999987483024597, -0.0012963470071554184, 0.0006463108584284782, -0.0006710458546876907, 0.07972824573516846, -0.0046471357345581055, 0.018410027027130127, 9.566710472106934, -0.5541049242019653, 2.214785099029541, -17.826770782470703, 8.887771606445312, -9.22791576385498, -0.997802734375, -0.294921875, -0.241455078125, 0, 
45, 3283371210, 0.04125571623444557, -0.6038550138473511, -0.020821381360292435, -0.795753538608551, 0.9999986886978149, -0.0012644082307815552, 0.0006851563230156898, -0.0007101837545633316, 0.08036178350448608, -0.0049021244049072266, 0.018460631370544434, 9.642702102661133, -0.5842483639717102, 2.221207857131958, -17.387563705444336, 9.421957015991211, -9.766120910644531, -0.998291015625, -0.291015625, -0.243896484375, 0, 
46, 3283379543, 0.03996999189257622, -0.6033018231391907, -0.020269418135285378, -0.7962528467178345, 0.9999987483024597, -0.001202927902340889, 0.0007382510229945183, -0.0007220637053251266, 0.07994252443313599, -0.0045525431632995605, 0.019324541091918945, 9.592170715332031, -0.5422088503837585, 2.3254384994506836, -16.542116165161133, 10.152091026306152, -9.92949104309082, -0.994873046875, -0.29052734375, -0.247314453125, 0, 
47, 3283387876, 0.03827966749668121, -0.603111982345581, -0.01924426481127739, -0.7965051531791687, 0.9999987483024597, -0.0011912994086742401, 0.0007384875789284706, -0.0007393229752779007, 0.07952940464019775, -0.003865182399749756, 0.02003246545791626, 9.542479515075684, -0.45966407656669617, 2.410468816757202, -16.382204055786133, 10.155343055725098, -10.166831016540527, -0.995361328125, -0.29345703125, -0.245361328125, 0, 
48, 3283396209, 0.03696799650788307, -0.6025726795196533, -0.018704980611801147, -0.7969879508018494, 0.9999987483024597, -0.0012090522795915604, 0.00071673933416605, -0.000748535618185997, 0.07925260066986084, -0.003204822540283203, 0.02028411626815796, 9.509235382080078, -0.3804250657558441, 2.440537452697754, -16.62633514404297, 9.856271743774414, -10.293519973754883, -0.997802734375, -0.29541015625, -0.251220703125, 0, 
49, 3283404542, 0.03559691831469536, -0.6024206280708313, -0.017881743609905243, -0.7971841096878052, 0.9999987483024597, -0.0012430213391780853, 0.0006605619564652443, -0.0007393322885036469, 0.07861143350601196, -0.003312408924102783, 0.019505441188812256, 9.43249225616455, -0.3934343457221985, 2.346497058868408, -17.093460083007812, 9.083745956420898, -10.166960716247559, -0.995849609375, -0.29541015625, -0.252685546875, 0, 
50, 3283412875, 0.03429422155022621, -0.6019880175590515, -0.017299698665738106, -0.7975807785987854, 0.9999988079071045, -0.0012400448322296143, 0.0005819620564579964, -0.0007097944617271423, 0.07870405912399292, -0.003783702850341797, 0.01761305332183838, 9.443954467773438, -0.4499751627445221, 2.118594169616699, -17.05253028869629, 8.002876281738281, -9.76076889038086, -0.991943359375, -0.2978515625, -0.252685546875, 0, 
51, 3283421208, 0.03262461721897125, -0.6018930673599243, -0.01618361845612526, -0.797745943069458, 0.9999988675117493, -0.0012139715254306793, 0.0005736341699957848, -0.0006740614771842957, 0.07927519083023071, -0.004028737545013428, 0.017821550369262695, 9.512497901916504, -0.4796404540538788, 2.1435601711273193, -16.693981170654297, 7.888354778289795, -9.269384384155273, -0.992919921875, -0.2998046875, -0.255126953125, 0, 
52, 3283429541, 0.03142113238573074, -0.6014381051063538, -0.015630222856998444, -0.7981482744216919, 0.999998927116394, -0.0011570584028959274, 0.000604492612183094, -0.0006477069109678268, 0.0792994499206543, -0.0046762824058532715, 0.018654584884643555, 9.515326499938965, -0.5576175451278687, 2.243725061416626, -15.911337852478027, 8.312705993652344, -8.906970024108887, -0.994384765625, -0.29833984375, -0.258056640625, 0, 
53, 3283437874, 0.030128270387649536, -0.6012917757034302, -0.014792099595069885, -0.7983245253562927, 0.9999990463256836, -0.0010728854686021805, 0.000635332427918911, -0.0006408970803022385, 0.07918602228164673, -0.005154550075531006, 0.019658148288726807, 9.50159740447998, -0.6150109171867371, 2.364450454711914, -14.753829002380371, 8.736801147460938, -8.813323974609375, -0.990966796875, -0.30078125, -0.260009765625, 0, 
54, 3283446207, 0.029010914266109467, -0.6007971167564392, -0.014365524053573608, -0.79874587059021, 0.9999990463256836, -0.001003233715891838, 0.0006454316899180412, -0.00065581314265728, 0.07878977060317993, -0.005578756332397461, 0.020736873149871826, 9.453984260559082, -0.6657864451408386, 2.4939403533935547, -13.796010971069336, 8.875680923461914, -9.018442153930664, -0.9921875, -0.29931640625, -0.261962890625, 0, 
55, 3283454540, 0.027858437970280647, -0.6006584167480469, -0.013678858056664467, -0.7989033460617065, 0.9999991655349731, -0.0009102467447519302, 0.0006084991618990898, -0.0006537921726703644, 0.07840603590011597, -0.006108999252319336, 0.020618975162506104, 9.408064842224121, -0.729180634021759, 2.4794747829437256, -12.517292976379395, 8.367799758911133, -8.99064826965332, -0.9921875, -0.30078125, -0.266845703125, 0, 
56, 3283462873, 0.026860976591706276, -0.6002205610275269, -0.013385645113885403, -0.7992716431617737, 0.9999992847442627, -0.0008254442363977432, 0.0005665170028805733, -0.0006371811032295227, 0.0785093903541565, -0.006310880184173584, 0.02001500129699707, 9.420626640319824, -0.7533383965492249, 2.4065840244293213, -11.351129531860352, 7.7904815673828125, -8.762222290039062, -0.99072265625, -0.30517578125, -0.268798828125, 0, 
57, 3283471206, 0.025620199739933014, -0.6001235842704773, -0.012622280046343803, -0.7993974089622498, 0.9999994039535522, -0.000719243660569191, 0.0005279695615172386, -0.0006174556910991669, 0.07869178056716919, -0.0062064528465271, 0.01947605609893799, 9.442605018615723, -0.740603506565094, 2.3417272567749023, -9.890708923339844, 7.260395526885986, -8.490967750549316, -0.98779296875, -0.3017578125, -0.267333984375, 0, 
58, 3283479539, 0.024802107363939285, -0.5997240543365479, -0.01248661894351244, -0.7997251749038696, 0.9999995231628418, -0.000592382624745369, 0.0005103936418890953, -0.0005862470716238022, 0.07897764444351196, -0.00594782829284668, 0.018617570400238037, 9.476972579956055, -0.7095426917076111, 2.2386064529418945, -8.146172523498535, 7.018697738647461, -8.061800003051758, -0.98779296875, -0.30517578125, -0.267822265625, 0, 
59, 3283487872, 0.02397480420768261, -0.5996304750442505, -0.012019384652376175, -0.7998276352882385, 0.9999995827674866, -0.00047731027007102966, 0.0005004061385989189, -0.0005635246634483337, 0.07956963777542114, -0.0053421854972839355, 0.01897042989730835, 9.547950744628906, -0.6367465257644653, 2.2810654640197754, -6.56374979019165, 6.881353855133057, -7.749330520629883, -0.9873046875, -0.3046875, -0.271728515625, 0, 
60, 3283496205, 0.023305371403694153, -0.5992252230644226, -0.012008828110992908, -0.8001512289047241, 0.9999996423721313, -0.0004028715193271637, 0.0005116695538163185, -0.0005421098321676254, 0.0790523886680603, -0.004643261432647705, 0.019362151622772217, 9.485779762268066, -0.5530237555503845, 2.3281631469726562, -5.540103435516357, 7.036243915557861, -7.454843997955322, -0.98828125, -0.3076171875, -0.269775390625, 0, 
61, 3283504538, 0.02281072549521923, -0.5991364121437073, -0.011764601804316044, -0.8002355694770813, 0.9999997019767761, -0.000341733917593956, 0.0004883268848061562, -0.0005187317728996277, 0.07818442583084106, -0.004228174686431885, 0.01964247226715088, 9.38161563873291, -0.5033305883407593, 2.3616106510162354, -4.699367523193359, 6.715246200561523, -7.133359909057617, -0.9833984375, -0.306640625, -0.270263671875, 0, 
62, 3283512871, 0.02226782962679863, -0.5988165736198425, -0.011819303035736084, -0.8004894256591797, 0.9999997615814209, -0.0002757292240858078, 0.0004018368199467659, -0.00047717802226543427, 0.07762819528579712, -0.00361788272857666, 0.020190060138702393, 9.314969062805176, -0.4302922189235687, 2.4266185760498047, -3.791701078414917, 5.525875091552734, -6.56193208694458, -0.98486328125, -0.3076171875, -0.270263671875, 0, 
63, 3283521204, 0.0211828351020813, -0.5988630652427673, -0.011077928356826305, -0.8004947304725647, 0.9999998211860657, -0.0002471134066581726, 0.0003225831314921379, -0.0004423540085554123, 0.07798802852630615, -0.0030027031898498535, 0.02104806900024414, 9.358287811279297, -0.35685425996780396, 2.528773784637451, -3.3981893062591553, 4.436014175415039, -6.083047866821289, -0.98486328125, -0.30810546875, -0.271240234375, 0, 
64, 3283529537, 0.020709224045276642, -0.5986617207527161, -0.011141820810735226, -0.8006568551063538, 0.9999998807907104, -0.0002282261848449707, 0.0002531604841351509, -0.00042342953383922577, 0.07826465368270874, -0.0029126405715942383, 0.020853400230407715, 9.391642570495605, -0.34609586000442505, 2.5048258304595947, -3.1384613513946533, 3.4813461303710938, -5.822807788848877, -0.98388671875, -0.30712890625, -0.273681640625, 0, 
65, 3283537870, 0.02030400186777115, -0.5987910628318787, -0.01090543158352375, -0.8005737066268921, 0.9999998807907104, -0.00021634995937347412, 0.00018826406449079514, -0.00041852332651615143, 0.07877260446548462, -0.002884984016418457, 0.02099090814590454, 9.452744483947754, -0.3426578938961029, 2.520787000656128, -2.975144386291504, 2.5889203548431396, -5.755339622497559, -0.982421875, -0.31005859375, -0.271728515625, 0, 
66, 3283546203, 0.019855720922350883, -0.5986944437026978, -0.010999202728271484, -0.8006559014320374, 0.9999998807907104, -0.00019004382193088531, 0.00012142863124608994, -0.0004181433469057083, 0.07894134521484375, -0.003159761428833008, 0.020677030086517334, 9.473187446594238, -0.37550047039985657, 2.482482433319092, -2.6133949756622314, 1.6698304414749146, -5.750114440917969, -0.98583984375, -0.310546875, -0.272705078125, 0, 
67, 3283554536, 0.019399477168917656, -0.598913311958313, -0.010755335912108421, -0.8005067110061646, 0.9999999403953552, -0.00011563301086425781, 0.00005876924842596054, -0.0004004277288913727, 0.07956510782241821, -0.002314150333404541, 0.021337568759918213, 9.5481538772583, -0.2741491198539734, 2.5611448287963867, -1.5901317596435547, 0.808167576789856, -5.506497383117676, -0.98291015625, -0.30908203125, -0.274169921875, 0, 
68, 3283562869, 0.01903861202299595, -0.5988864302635193, -0.01086337212473154, -0.8005339503288269, 0.9999999403953552, -0.00012704543769359589, 0.000033653341233730316, -0.0003548935055732727, 0.07997697591781616, -0.001286923885345459, 0.021801650524139404, 9.597585678100586, -0.1512390673160553, 2.6166181564331055, -1.7470698356628418, 0.46278512477874756, -4.880331039428711, -0.982421875, -0.31494140625, -0.273193359375, 0, 
69, 3283571202, 0.01881955936551094, -0.5991418361663818, -0.010659388266503811, -0.8003507852554321, 0.9999999403953552, -0.00020357966423034668, -0.0000017415732145309448, -0.00029934942722320557, 0.08031833171844482, -0.0006783008575439453, 0.0214654803276062, 9.63861083984375, -0.07925190031528473, 2.575930118560791, -2.7995336055755615, -0.023949310183525085, -4.116515159606934, -0.9833984375, -0.3076171875, -0.275634765625, 0, 
70, 3283579535, 0.018456956371665, -0.5991617441177368, -0.010575196705758572, -0.8003454804420471, 0.9999999403953552, -0.00028226710855960846, -0.000019552186131477356, -0.0002399832010269165, 0.08006465435028076, -0.0010681748390197754, 0.020964324474334717, 9.608227729797363, -0.12645861506462097, 2.5155773162841797, -3.8816068172454834, -0.26887261867523193, -3.300137758255005, -0.98193359375, -0.31494140625, -0.273193359375, 0, 
71, 3283587868, 0.01802893541753292, -0.5994399189949036, -0.010081753134727478, -0.8001532554626465, 0.9999999403953552, -0.00031965039670467377, -0.000038973987102508545, -0.00019861944019794464, 0.08020180463790894, -0.0013566017150878906, 0.02155780792236328, 9.624738693237305, -0.1616695374250412, 2.5865957736968994, -4.395684719085693, -0.5359522700309753, -2.731323003768921, -0.986328125, -0.314453125, -0.270263671875, 0, 
72, 3283596201, 0.017688428983092308, -0.5994918942451477, -0.00993436947464943, -0.8001237511634827, 0.9999999403953552, -0.00031962618231773376, -0.00005799531936645508, -0.00018372200429439545, 0.08015888929367065, -0.001501917839050293, 0.021958231925964355, 9.619648933410645, -0.17924757301807404, 2.634434700012207, -4.395351409912109, -0.7975248098373413, -2.5264599323272705, -0.97998046875, -0.31201171875, -0.275146484375, 0, 
73, 3283604534, 0.016535447910428047, -0.5998399257659912, -0.008857354521751404, -0.799900233745575, 0.9999999403953552, -0.00030891038477420807, -0.00012760795652866364, -0.00014184415340423584, 0.08066332340240479, -0.0018214583396911621, 0.022868692874908447, 9.680329322814941, -0.21810872852802277, 2.7431747913360596, -4.247992992401123, -1.7548056840896606, -1.9505752325057983, -0.9794921875, -0.3134765625, -0.275146484375, 0, 
74, 3283612867, 0.016294796019792557, -0.5999873876571655, -0.00870182178914547, -0.7997962832450867, 0.9999999403953552, -0.00026679597795009613, -0.00017774663865566254, -0.00009679049253463745, 0.08126693964004517, -0.0017473101615905762, 0.023579180240631104, 9.752979278564453, -0.20948493480682373, 2.8277125358581543, -3.6688554286956787, -2.4442896842956543, -1.3310182094573975, -0.98193359375, -0.3154296875, -0.272216796875, 0, 
75, 3283621200, 0.016519566997885704, -0.6003366708755493, -0.008592919446527958, -0.7995308041572571, 0.9999999403953552, -0.00027874670922756195, -0.00016631744801998138, -0.00006514973938465118, 0.08108139038085938, -0.002071678638458252, 0.023249149322509766, 9.730676651000977, -0.24876797199249268, 2.7881741523742676, -3.8331961631774902, -2.287120819091797, -0.8959091901779175, -0.98291015625, -0.314453125, -0.275634765625, 0, 
76, 3283629533, 0.016320090740919113, -0.6005699038505554, -0.008377048186957836, -0.7993620038032532, 0.9999999403953552, -0.0002910252660512924, -0.0002835933119058609, -0.00002579018473625183, 0.08067655563354492, -0.0021396279335021973, 0.022467374801635742, 9.682404518127441, -0.2573423385620117, 2.693150281906128, -4.002044677734375, -3.89984393119812, -0.3546546697616577, -0.98388671875, -0.310546875, -0.270751953125, 0, 
77, 3283637866, 0.01609693095088005, -0.6010057926177979, -0.007892955094575882, -0.7990435361862183, 0.9999999403953552, -0.00028981082141399384, -0.0002902541309595108, -0.00002393685281276703, 0.08086985349655151, -0.002037644386291504, 0.022367000579833984, 9.70560073852539, -0.24510475993156433, 2.6810879707336426, -3.985344171524048, -3.991440534591675, -0.32916849851608276, -0.984375, -0.31640625, -0.271240234375, 0, 
78, 3283646199, 0.01588572934269905, -0.6012309193611145, -0.007695239037275314, -0.7988802790641785, 0.9999999403953552, -0.00028303079307079315, -0.0002739671617746353, -0.000046232715249061584, 0.08071941137313843, -0.0013132691383361816, 0.022873282432556152, 9.687434196472168, -0.15790989995002747, 2.742347240447998, -3.8921091556549072, -3.767470121383667, -0.6357709169387817, -0.98291015625, -0.318359375, -0.272216796875, 0, 
79, 3283654532, 0.01601741835474968, -0.601617157459259, -0.007521677762269974, -0.7985884547233582, 0.9999998807907104, -0.00034079328179359436, -0.00024771131575107574, -0.0000673532485961914, 0.0803254246711731, -0.001002192497253418, 0.023499786853790283, 9.640129089355469, -0.12057407200336456, 2.8177008628845215, -4.686431407928467, -3.4064114093780518, -0.9262107014656067, -0.98681640625, -0.3125, -0.275146484375, 0, 
80, 3283662865, 0.015642864629626274, -0.6017739176750183, -0.007264770567417145, -0.7984801530838013, 0.9999998807907104, -0.00042741745710372925, -0.0001863781362771988, -0.00014241598546504974, 0.07865118980407715, -0.0012509822845458984, 0.024595677852630615, 9.439092636108398, -0.15004080533981323, 2.949770450592041, -5.877647399902344, -2.562985897064209, -1.958438754081726, -0.984375, -0.3154296875, -0.270751953125, 0, 
81, 3283671198, 0.014733600430190563, -0.6021332740783691, -0.00645587919279933, -0.7982336282730103, 0.9999998211860657, -0.0004921667277812958, -0.00022224150598049164, -0.00022182613611221313, 0.07660800218582153, -0.0012341141700744629, 0.02542799711227417, 9.194011688232422, -0.1475822776556015, 3.0494465827941895, -6.768049716949463, -3.0561625957489014, -3.0504508018493652, -0.9814453125, -0.31298828125, -0.272705078125, 0, 
82, 3283679531, 0.014169173315167427, -0.6024030447006226, -0.0062220352701842785, -0.7980421185493469, 0.9999997615814209, -0.000524105504155159, -0.00032803975045681, -0.00030593760311603546, 0.07508522272109985, -0.0015671849250793457, 0.02525913715362549, 9.011639595031738, -0.1868986338376999, 3.0281569957733154, -7.2072577476501465, -4.511051654815674, -4.207113265991211, -0.9833984375, -0.31787109375, -0.270263671875, 0, 
83, 3283687864, 0.01321370154619217, -0.6028881669044495, -0.005601579323410988, -0.7976967692375183, 0.9999997019767761, -0.0004887636750936508, -0.00041484273970127106, -0.00039263442158699036, 0.07470470666885376, -0.0013046860694885254, 0.024375975131988525, 8.96619987487793, -0.1544734239578247, 2.921430826187134, -6.72125244140625, -5.704726219177246, -5.399327754974365, -0.98046875, -0.31396484375, -0.271728515625, 0, 
84, 3283696197, 0.012598727829754353, -0.6032809615135193, -0.005534921307116747, -0.7974101901054382, 0.9999997019767761, -0.0004217401146888733, -0.0004857778549194336, -0.0004451163113117218, 0.07525157928466797, -0.00045245885848999023, 0.023896217346191406, 9.031997680664062, -0.05142220854759216, 2.8631510734558105, -5.799576282501221, -6.680193901062012, -6.121035099029541, -0.9794921875, -0.31640625, -0.269287109375, 0, 
85, 3283704530, 0.01168899517506361, -0.6038419604301453, -0.00506194680929184, -0.797002375125885, 0.9999996423721313, -0.0004005618393421173, -0.0005446039140224457, -0.0004510246217250824, 0.07584917545318604, 0.0009167194366455078, 0.02335667610168457, 9.103729248046875, 0.11297228187322617, 2.7980360984802246, -5.5083417892456055, -7.489141941070557, -6.202282905578613, -0.98291015625, -0.3134765625, -0.267822265625, 0, 
86, 3283712863, 0.011071490123867989, -0.6043137907981873, -0.004991683177649975, -0.7966539263725281, 0.9999996423721313, -0.00042614899575710297, -0.0005857124924659729, -0.00044401176273822784, 0.07637107372283936, 0.002039015293121338, 0.023680567741394043, 9.166436195373535, 0.24752472341060638, 2.8365659713745117, -5.860203742980957, -8.054447174072266, -6.105844497680664, -0.9833984375, -0.31494140625, -0.269287109375, 0, 
87, 3283721196, 0.010202844627201557, -0.604888379573822, -0.004539834335446358, -0.7962320446968079, 0.9999996423721313, -0.00047995150089263916, -0.0005844272673130035, -0.0004489850252866745, 0.07647895812988281, 0.0029026269912719727, 0.024963319301605225, 9.179438591003418, 0.3510177731513977, 2.9905128479003906, -6.600070476531982, -8.036772727966309, -6.174233913421631, -0.97998046875, -0.3154296875, -0.267822265625, 0, 
88, 3283729529, 0.00948971789330244, -0.6053485870361328, -0.004378064535558224, -0.7958919405937195, 0.9999995827674866, -0.0005561709403991699, -0.0005705244839191437, -0.00046511925756931305, 0.0766446590423584, 0.0034821629524230957, 0.02607065439224243, 9.1993408203125, 0.42045480012893677, 3.123511552810669, -7.648207664489746, -7.845590114593506, -6.396105766296387, -0.97998046875, -0.312255859375, -0.266357421875, 0, 
89, 3283737862, 0.008591040968894958, -0.6058520078659058, -0.003934142645448446, -0.7955213189125061, 0.9999995231628418, -0.0006308108568191528, -0.0005181394517421722, -0.0004920326173305511, 0.07605493068695068, 0.002943277359008789, 0.02683544158935547, 9.128426551818848, 0.35562849044799805, 3.215946674346924, -8.674620628356934, -7.125214576721191, -6.766205787658691, -0.980224609375, -0.3212890625, -0.262939453125, 0, 
90, 3283746195, 0.007759677246212959, -0.6063051819801331, -0.003674769541248679, -0.7951858639717102, 0.999999463558197, -0.0007049888372421265, -0.0005614757537841797, -0.0005003474652767181, 0.07616853713989258, 0.0019831061363220215, 0.0275266170501709, 9.142340660095215, 0.24024991691112518, 3.2983133792877197, -9.694683074951172, -7.721156597137451, -6.880548000335693, -0.984130859375, -0.3203125, -0.267333984375, 0, 
91, 3283754528, 0.006677040830254555, -0.6068539023399353, -0.0031021202448755503, -0.7947793006896973, 0.9999994039535522, -0.0007430538535118103, -0.0006056800484657288, -0.0005067922174930573, 0.07475125789642334, 0.0004630088806152344, 0.027777791023254395, 8.9724760055542, 0.05760999768972397, 3.3281378746032715, -10.218135833740234, -8.329034805297852, -6.969174385070801, -0.980224609375, -0.318603515625, -0.264404296875, 0, 
92, 3283762861, 0.005837186239659786, -0.6074286699295044, -0.0028518091421574354, -0.7943475842475891, 0.9999993443489075, -0.0007029213011264801, -0.0007163919508457184, -0.00051150843501091, 0.07421904802322388, -0.0009219050407409668, 0.026976406574249268, 8.909037590026855, -0.10832791030406952, 3.230776309967041, -9.666250228881836, -9.851491928100586, -7.034029006958008, -0.981201171875, -0.32275390625, -0.263916015625, 0, 
93, 3283771194, 0.0044205826707184315, -0.6081089973449707, -0.002106537576764822, -0.793838620185852, 0.9999994039535522, -0.0005748029798269272, -0.0008068904280662537, -0.0005154367536306381, 0.07459807395935059, -0.0018867850303649902, 0.0269128680229187, 8.954855918884277, -0.22365310788154602, 3.222292423248291, -7.904426097869873, -11.095985412597656, -7.088049411773682, -0.979248046875, -0.322021484375, -0.262939453125, 0, 
94, 3283779527, 0.0037637699861079454, -0.6088123321533203, -0.002093696966767311, -0.7933028340339661, 0.9999994039535522, -0.00040295347571372986, -0.0008820109069347382, -0.0005103889852762222, 0.07484376430511475, -0.002264738082885742, 0.027441978454589844, 8.98462963104248, -0.26854467391967773, 3.2851948738098145, -5.541231155395508, -12.129008293151855, -7.018634796142578, -0.980224609375, -0.32568359375, -0.262939453125, 0, 
95, 3283787860, 0.0031784740276634693, -0.6095707416534424, -0.0020608052145689726, -0.7927227020263672, 0.9999994039535522, -0.0002384185791015625, -0.0009406525641679764, -0.0004869382828474045, 0.07545453310012817, -0.0019941329956054688, 0.027481257915496826, 9.058159828186035, -0.23564061522483826, 3.289210557937622, -3.27862286567688, -12.935422897338867, -6.6961517333984375, -0.981201171875, -0.3232421875, -0.258544921875, 0, 
96, 3283796193, 0.0027351523749530315, -0.6103479266166687, -0.002229866338893771, -0.7921256422996521, 0.9999994039535522, -0.00012802891433238983, -0.0009781606495380402, -0.00045144185423851013, 0.07634371519088745, -0.0012169480323791504, 0.027409911155700684, 9.164850234985352, -0.14237025380134583, 3.280451536178589, -1.7605949640274048, -13.451215744018555, -6.20802116394043, -0.980712890625, -0.3291015625, -0.258056640625, 0, 
97, 3283804526, 0.0019359778380021453, -0.6111394762992859, -0.0019961614161729813, -0.791517972946167, 0.9999994039535522, -0.00007179379463195801, -0.001011781394481659, -0.00041682831943035126, 0.0771782398223877, -0.0000864863395690918, 0.02733689546585083, 9.265049934387207, -0.006784978322684765, 3.271267890930176, -0.987275242805481, -13.913552284240723, -5.73203182220459, -0.982177734375, -0.326171875, -0.256103515625, 0, 
98, 3283812859, 0.0015804192516952753, -0.6119184494018555, -0.0022106152027845383, -0.7909162640571594, 0.9999994039535522, -0.000037886202335357666, -0.000981966033577919, -0.0004101581871509552, 0.07780849933624268, 0.001247406005859375, 0.027437269687652588, 9.340558052062988, 0.15339553356170654, 3.283451557159424, -0.5209935307502747, -13.503543853759766, -5.64030647277832, -0.979248046875, -0.327880859375, -0.253173828125, 0, 
99, 3283821192, 0.001532428665086627, -0.6126419901847839, -0.00257891695946455, -0.7903550863265991, 0.999999463558197, -0.00004487484693527222, -0.000954996794462204, -0.0004248581826686859, 0.07831710577011108, 0.0023792386054992676, 0.027398109436035156, 9.401468276977539, 0.28939446806907654, 3.278874635696411, -0.6170981526374817, -13.132674217224121, -5.842453479766846, -0.979248046875, -0.328369140625, -0.252197265625, 0, 
100, 3283829525, 0.0011268239468336105, -0.6133838891983032, -0.00279830489307642, -0.7897793650627136, 0.999999463558197, -0.00006395205855369568, -0.0009370520710945129, -0.0004525892436504364, 0.07800507545471191, 0.003662586212158203, 0.02668970823287964, 9.363744735717773, 0.44350799918174744, 3.1942617893218994, -0.8794392347335815, -12.885907173156738, -6.223798751831055, -0.97998046875, -0.327392578125, -0.247802734375, 0, 
101, 3283837858, 0.00013081345241516829, -0.6140722632408142, -0.002488834783434868, -0.7892459034919739, 0.999999463558197, -0.00010860525071620941, -0.0009313002228736877, -0.00047745369374752045, 0.07776564359664917, 0.004884958267211914, 0.026641249656677246, 9.334935188293457, 0.5903111696243286, 3.188483715057373, -1.4934892654418945, -12.806811332702637, -6.565722942352295, -0.98095703125, -0.330322265625, -0.248291015625, 0, 
102, 3283846191, -0.0003743662382476032, -0.6147881150245667, -0.0026233550161123276, -0.7886878252029419, 0.999999463558197, -0.00019148550927639008, -0.0009055528789758682, -0.0004795920103788376, 0.07771146297454834, 0.005867481231689453, 0.025943100452423096, 9.328194618225098, 0.7079539895057678, 3.1050915718078613, -2.6332204341888428, -12.45274543762207, -6.595128059387207, -0.97705078125, -0.333251953125, -0.245849609375, 0, 
103, 3283854524, -0.001398804597556591, -0.6154276728630066, -0.0022372573148459196, -0.7881890535354614, 0.999999463558197, -0.00031395815312862396, -0.0008901935070753098, -0.00046797841787338257, 0.0771055817604065, 0.007132112979888916, 0.025427401065826416, 9.255339622497559, 0.8592385649681091, 3.0434939861297607, -4.317407608032227, -12.241530418395996, -6.435422897338867, -0.97607421875, -0.327392578125, -0.245849609375, 0, 
104, 3283862857, -0.002056058729067445, -0.6161537170410156, -0.002137787640094757, -0.7876203656196594, 0.9999993443489075, -0.0004685334861278534, -0.0009205453097820282, -0.00045611709356307983, 0.07702440023422241, 0.007571160793304443, 0.024565398693084717, 9.245604515075684, 0.9114266633987427, 2.939840793609619, -6.443056583404541, -12.658914566040039, -6.272312164306641, -0.9755859375, -0.332763671875, -0.244873046875, 0, 
105, 3283871190, -0.0034132322762161493, -0.6168171763420105, -0.001419497188180685, -0.7870979309082031, 0.9999992847442627, -0.0006007570773363113, -0.0009383410215377808, -0.00045830197632312775, 0.0772213339805603, 0.008456707000732422, 0.024007976055145264, 9.269179344177246, 1.0173789262771606, 2.872936964035034, -8.261336326599121, -12.903635025024414, -6.302358627319336, -0.97802734375, -0.331787109375, -0.241455078125, 0, 
106, 3283879523, -0.00424930127337575, -0.617565929889679, -0.0011208076030015945, -0.7865070700645447, 0.9999991655349731, -0.0007347110658884048, -0.0009528603404760361, -0.0004747360944747925, 0.07780539989471436, 0.008524417877197266, 0.023989200592041016, 9.33927059173584, 1.0252851247787476, 2.870694398880005, -10.103408813476562, -13.103297233581543, -6.528352737426758, -0.97900390625, -0.333251953125, -0.242431640625, 0, 
107, 3283887856, -0.00584346754476428, -0.6182199120521545, -0.000204381940420717, -0.7859835624694824, 0.9999990463256836, -0.0008558556437492371, -0.0009421687573194504, -0.0004862342029809952, 0.07788956165313721, 0.008270323276519775, 0.02425485849380493, 9.349367141723633, 0.9945253729820251, 2.902780055999756, -11.76933479309082, -12.956273078918457, -6.686470031738281, -0.97802734375, -0.336181640625, -0.243408203125, 0, 
108, 3283896189, -0.006851051468402147, -0.6189539432525635, 0.00027620463515631855, -0.7853974103927612, 0.999998927116394, -0.0009825937449932098, -0.0009392779320478439, -0.0004977937787771225, 0.07816535234451294, 0.007800638675689697, 0.0251542329788208, 9.382572174072266, 0.9378131031990051, 3.010772466659546, -13.512177467346191, -12.916520118713379, -6.845432281494141, -0.9775390625, -0.333740234375, -0.241455078125, 0, 
109, 3283904522, -0.008176387287676334, -0.6195706129074097, 0.0010299024870619178, -0.7848977446556091, 0.9999988675117493, -0.001099882647395134, -0.0009102635085582733, -0.0004819408059120178, 0.07813477516174316, 0.007068037986755371, 0.02565544843673706, 9.378933906555176, 0.8493315577507019, 3.071193218231201, -15.125083923339844, -12.51752758026123, -6.627429008483887, -0.9794921875, -0.334228515625, -0.238525390625, 0, 
110, 3283912855, -0.009321872144937515, -0.6202765107154846, 0.0017015262274071574, -0.7843261361122131, 0.9999987483024597, -0.0012172944843769073, -0.0009096954017877579, -0.00048782117664813995, 0.07808345556259155, 0.006234526634216309, 0.02612966299057007, 9.3728609085083, 0.7489264011383057, 3.1281137466430664, -16.73967933654785, -12.509716987609863, -6.7082953453063965, -0.97509765625, -0.331787109375, -0.237548828125, 0, 
111, 3283921188, -0.011101435869932175, -0.6208721995353699, 0.0028730283956974745, -0.7838278412818909, 0.9999985694885254, -0.001359935849905014, -0.0009059291332960129, -0.00047769956290721893, 0.07844305038452148, 0.005492508411407471, 0.026400446891784668, 9.41609001159668, 0.6593193411827087, 3.1605677604675293, -18.701217651367188, -12.45792293548584, -6.569106101989746, -0.97900390625, -0.334228515625, -0.236083984375, 0, 
112, 3283929521, -0.012425726279616356, -0.6215429902076721, 0.003755317535251379, -0.7832724452018738, 0.9999983906745911, -0.001492643728852272, -0.0008738841861486435, -0.0004974938929080963, 0.07844853401184082, 0.004628241062164307, 0.02651160955429077, 9.416708946228027, 0.5553500056266785, 3.174100160598755, -20.52615737915039, -12.017257690429688, -6.841309547424316, -0.97900390625, -0.336181640625, -0.239501953125, 0, 
113, 3283937854, -0.014598149806261063, -0.622097909450531, 0.005263205152004957, -0.7827857732772827, 0.999998152256012, -0.0016238484531641006, -0.000882316380739212, -0.0005085654556751251, 0.0780298113822937, 0.003565490245819092, 0.02619069814682007, 9.366498947143555, 0.4275398552417755, 3.13545823097229, -22.330425262451172, -12.133213996887207, -6.993561267852783, -0.97900390625, -0.338623046875, -0.235595703125, 0, 
114, 3283946187, -0.016111116856336594, -0.6227899193763733, 0.006314130965620279, -0.7821979522705078, 0.9999979138374329, -0.0017408095300197601, -0.0009121857583522797, -0.00054171122610569, 0.07769745588302612, 0.0027772188186645508, 0.025649666786193848, 9.326683044433594, 0.3329784870147705, 3.0701823234558105, -23.938823699951172, -12.543965339660645, -7.449367046356201, -0.97509765625, -0.337158203125, -0.235595703125, 0, 
115, 3283954520, -0.018220817670226097, -0.6233609318733215, 0.007722077425569296, -0.7816839814186096, 0.9999977946281433, -0.0018066931515932083, -0.0009286440908908844, -0.0005874820053577423, 0.07807183265686035, 0.002136528491973877, 0.025491535663604736, 9.37168025970459, 0.2563767433166504, 3.050870656967163, -24.84482765197754, -12.770293235778809, -8.078786849975586, -0.97412109375, -0.339111328125, -0.233642578125, 0, 
116, 3283962853, -0.019860481843352318, -0.6240691542625427, 0.008785070851445198, -0.7810675501823425, 0.9999976754188538, -0.0018280856311321259, -0.0009422823786735535, -0.0006344206631183624, 0.07804250717163086, 0.0015742182731628418, 0.025576889514923096, 9.368236541748047, 0.18924899399280548, 3.060892343521118, -25.139007568359375, -12.957840919494629, -8.724266052246094, -0.9765625, -0.339111328125, -0.236572265625, 0, 
117, 3283971186, -0.021299751475453377, -0.624674916267395, 0.009547826834022999, -0.7805359959602356, 0.999997615814209, -0.0018229186534881592, -0.0009830817580223083, -0.0006800703704357147, 0.07862699031829834, 0.0017253756523132324, 0.025578975677490234, 9.438482284545898, 0.20787793397903442, 3.060725450515747, -25.067955017089844, -13.518898010253906, -9.352020263671875, -0.97705078125, -0.340576171875, -0.235107421875, 0, 
118, 3283979519, -0.0229922067373991, -0.6254125833511353, 0.010554728098213673, -0.7798841595649719, 0.999997615814209, -0.0018163081258535385, -0.0009860452264547348, -0.0007112864404916763, 0.07924860715866089, 0.0018333196640014648, 0.02593594789505005, 9.513117790222168, 0.22112245857715607, 3.1034767627716064, -24.977046966552734, -13.559646606445312, -9.781290054321289, -0.9736328125, -0.342041015625, -0.233642578125, 0, 
119, 3283987852, -0.025504883378744125, -0.6259655356407166, 0.012128685601055622, -0.7793393731117249, 0.9999977350234985, -0.0017723515629768372, -0.0009527858346700668, -0.0007099248468875885, 0.07922619581222534, 0.0017986893653869629, 0.02625936269760132, 9.510374069213867, 0.21702341735363007, 3.1425607204437256, -24.372577667236328, -13.102280616760254, -9.762566566467285, -0.97607421875, -0.341552734375, -0.234130859375, 0, 
120, 3283996185, -0.027143530547618866, -0.6266565918922424, 0.013082223944365978, -0.7787128686904907, 0.9999977946281433, -0.0017410274595022202, -0.0009333807975053787, -0.0007026400417089462, 0.07941323518753052, 0.0013112425804138184, 0.02629035711288452, 9.532809257507324, 0.15856881439685822, 3.1463186740875244, -23.941823959350586, -12.835430145263672, -9.66238784790039, -0.9755859375, -0.341552734375, -0.236572265625, 0, 
121, 3284004518, -0.028851469978690147, -0.6271694898605347, 0.014046690426766872, -0.7782217264175415, 0.9999979138374329, -0.0017009340226650238, -0.0009068287909030914, -0.0006658956408500671, 0.07924103736877441, 0.00121229887008667, 0.02601855993270874, 9.512044906616211, 0.14651165902614594, 3.113948345184326, -23.39047622680664, -12.47029972076416, -9.157095909118652, -0.97119140625, -0.343994140625, -0.238525390625, 0, 
122, 3284012851, -0.03036777675151825, -0.6278234720230103, 0.014997519552707672, -0.7776188850402832, 0.9999980330467224, -0.001661650836467743, -0.0008915383368730545, -0.0006079580634832382, 0.0789637565612793, 0.000929713249206543, 0.026043593883514404, 9.478751182556152, 0.11214419454336166, 3.117075204849243, -22.850269317626953, -12.260031700134277, -8.360363006591797, -0.97509765625, -0.343994140625, -0.236083984375, 0, 
123, 3284021184, -0.032667338848114014, -0.6282856464385986, 0.016593873500823975, -0.7771196365356445, 0.9999980926513672, -0.0016550775617361069, -0.0008809678256511688, -0.0005367714911699295, 0.07855939865112305, 0.0006709098815917969, 0.025862038135528564, 9.430200576782227, 0.08044097572565079, 3.095371961593628, -22.75987434387207, -12.114668846130371, -7.3814377784729, -0.9736328125, -0.346923828125, -0.235595703125, 0, 
124, 3284029517, -0.03407249599695206, -0.6289146542549133, 0.017637282609939575, -0.7765272855758667, 0.999998152256012, -0.0016634240746498108, -0.0008704960346221924, -0.0004634987562894821, 0.07809180021286011, 0.0005336403846740723, 0.025259435176849365, 9.373987197875977, 0.06334852427244186, 3.0232315063476562, -22.87465476989746, -11.970667839050293, -6.373824596405029, -0.973388671875, -0.344482421875, -0.22998046875, 0, 
125, 3284037850, -0.03581378236413002, -0.6293693780899048, 0.018938874825835228, -0.7760496139526367, 0.999998152256012, -0.0016634687781333923, -0.0008828546851873398, -0.00041963718831539154, 0.07789266109466553, 0.001390695571899414, 0.024853408336639404, 9.350056648254395, 0.16585573554039001, 2.974546194076538, -22.875268936157227, -12.140618324279785, -5.770660400390625, -0.972412109375, -0.348388671875, -0.235107421875, 0, 
126, 3284046183, -0.03717847913503647, -0.6299840211868286, 0.02002968080341816, -0.7754592895507812, 0.999998152256012, -0.0016736481338739395, -0.0008608289062976837, -0.00040214695036411285, 0.07785898447036743, 0.0018218159675598145, 0.024650156497955322, 9.345901489257812, 0.21744072437286377, 2.9504754543304443, -23.015249252319336, -11.837728500366211, -5.530142784118652, -0.969482421875, -0.345947265625, -0.233154296875, 0, 
127, 3284054516, -0.03847617283463478, -0.6304067373275757, 0.020975392311811447, -0.7750272154808044, 0.999998152256012, -0.0016641691327095032, -0.0008440166711807251, -0.00041870586574077606, 0.07779669761657715, 0.0015830397605895996, 0.024335920810699463, 9.338364601135254, 0.18902365863323212, 2.9128451347351074, -22.88489532470703, -11.60653305053711, -5.757853031158447, -0.973388671875, -0.345947265625, -0.231689453125, 0, 
128, 3284062849, -0.039855580776929855, -0.6309728026390076, 0.022008107975125313, -0.774468183517456, 0.9999982118606567, -0.0016380120068788528, -0.0008014962077140808, -0.0004478003829717636, 0.078102707862854, 0.000876009464263916, 0.02397918701171875, 9.37495231628418, 0.10461447387933731, 2.8702964782714844, -22.525197982788086, -11.021811485290527, -6.157947063446045, -0.969970703125, -0.348876953125, -0.230712890625, 0, 
129, 3284071182, -0.04140539839863777, -0.631278932094574, 0.02304309792816639, -0.774107038974762, 0.9999983906745911, -0.0015749149024486542, -0.0007106531411409378, -0.0004874132573604584, 0.07861775159835815, 0.00002294778823852539, 0.02430039644241333, 9.436574935913086, 0.0027634198777377605, 2.9094722270965576, -21.657514572143555, -9.772578239440918, -6.702685356140137, -0.968505859375, -0.346923828125, -0.233154296875, 0, 
130, 3284079515, -0.04274522140622139, -0.6316810846328735, 0.023904237896203995, -0.7736799716949463, 0.9999985694885254, -0.001483006402850151, -0.0005856789648532867, -0.0005166195333003998, 0.07871097326278687, -0.000052988529205322266, 0.024466395378112793, 9.44741153717041, -0.005832015536725521, 2.930558919906616, -20.39362907409668, -8.053990364074707, -7.104316711425781, -0.969970703125, -0.349853515625, -0.234130859375, 0, 
131, 3284087848, -0.04457729309797287, -0.631768524646759, 0.025049284100532532, -0.7734689116477966, 0.9999986886978149, -0.0014406275004148483, -0.0004451461136341095, -0.0005474090576171875, 0.07820713520050049, 0.0007028579711914062, 0.02471613883972168, 9.386500358581543, 0.08520941436290741, 2.962015151977539, -19.81085205078125, -6.121445655822754, -7.527719020843506, -0.970947265625, -0.349853515625, -0.234130859375, 0, 
132, 3284096181, -0.0459420308470726, -0.6319571733474731, 0.025822652503848076, -0.7732093930244446, 0.9999987483024597, -0.0014354120939970016, -0.0003105439245700836, -0.0005791019648313522, 0.07705438137054443, 0.0013253092765808105, 0.025224149227142334, 9.247747421264648, 0.16005924344062805, 3.0243642330169678, -19.7391300201416, -4.270458221435547, -7.963545799255371, -0.968994140625, -0.349853515625, -0.233642578125, 0, 
133, 3284104514, -0.04756886884570122, -0.631883442401886, 0.02671690098941326, -0.7731408476829529, 0.9999987483024597, -0.0014370400458574295, -0.0002384614199399948, -0.0006062965840101242, 0.07589620351791382, 0.0022585391998291016, 0.025205254554748535, 9.108467102050781, 0.2722184956073761, 3.0229597091674805, -19.761516571044922, -3.279212474822998, -8.337512969970703, -0.967529296875, -0.351806640625, -0.234619140625, 0, 
134, 3284112847, -0.048985689878463745, -0.631979763507843, 0.02745320089161396, -0.7729478478431702, 0.9999987483024597, -0.0014416240155696869, -0.00019449181854724884, -0.000637521967291832, 0.07498592138290405, 0.004047214984893799, 0.024868309497833252, 8.998942375183105, 0.4871264398097992, 2.9832630157470703, -19.824554443359375, -2.674562692642212, -8.766910552978516, -0.966796875, -0.350830078125, -0.237548828125, 0, 
135, 3284121180, -0.05054584518074989, -0.6318365335464478, 0.02822827361524105, -0.7729367017745972, 0.9999987483024597, -0.0014421530067920685, -0.00015764124691486359, -0.0006548482924699783, 0.07434308528900146, 0.0050942301750183105, 0.024979472160339355, 8.921598434448242, 0.6128512620925903, 2.9971325397491455, -19.831830978393555, -2.1678106784820557, -9.00517463684082, -0.969970703125, -0.354248046875, -0.236572265625, 0, 
136, 3284129513, -0.05200647935271263, -0.6318833827972412, 0.028975604102015495, -0.772773802280426, 0.9999986886978149, -0.0014790911227464676, -0.0001370348036289215, -0.0006617698818445206, 0.07378572225570679, 0.005793452262878418, 0.024584829807281494, 8.854584693908691, 0.6967426538467407, 2.950112819671631, -20.339784622192383, -1.8844400644302368, -9.100357055664062, -0.96923828125, -0.351806640625, -0.240478515625, 0, 
137, 3284137846, -0.05369436740875244, -0.6317147016525269, 0.029863759875297546, -0.7727623581886292, 0.9999985694885254, -0.0015368014574050903, -0.00014884956181049347, -0.0006613712757825851, 0.07330548763275146, 0.006143033504486084, 0.024719536304473877, 8.796964645385742, 0.7384571433067322, 2.9662864208221436, -21.133392333984375, -2.0469112396240234, -9.094877243041992, -0.9658203125, -0.354248046875, -0.241455078125, 0, 
138, 3284146179, -0.05521782115101814, -0.6317662596702576, 0.030712705105543137, -0.7725796103477478, 0.9999985098838806, -0.001597398892045021, -0.00015717186033725739, -0.0006476119160652161, 0.0732458233833313, 0.006190955638885498, 0.025010526180267334, 8.789840698242188, 0.7438466548919678, 3.001187801361084, -21.966705322265625, -2.161355972290039, -8.90566635131836, -0.967041015625, -0.357177734375, -0.237548828125, 0, 
139, 3284154512, -0.05694194138050079, -0.6315653920173645, 0.03166612982749939, -0.7725803852081299, 0.9999983906745911, -0.0016536042094230652, -0.0001286584883928299, -0.0006480440497398376, 0.07236999273300171, 0.005806922912597656, 0.025009095668792725, 8.684680938720703, 0.6975213289260864, 3.001246452331543, -22.739608764648438, -1.7692527770996094, -8.911605834960938, -0.96435546875, -0.356201171875, -0.240966796875, 0, 
140, 3284162845, -0.05853480100631714, -0.6315757036209106, 0.032586921006441116, -0.7724146842956543, 0.9999983310699463, -0.0016983915120363235, -0.00011712685227394104, -0.0006538853049278259, 0.07108044624328613, 0.0051323771476745605, 0.024955153465270996, 8.529942512512207, 0.6164029836654663, 2.9947853088378906, -23.355506896972656, -1.6106752157211304, -8.99193286895752, -0.96826171875, -0.359130859375, -0.245849609375, 0, 
141, 3284171178, -0.06036391481757164, -0.6313876509666443, 0.033608999103307724, -0.7723835706710815, 0.9999982118606567, -0.0017628241330385208, -0.00016893073916435242, -0.0006794203072786331, 0.06968563795089722, 0.0055394768714904785, 0.024438321590423584, 8.362653732299805, 0.6652770638465881, 2.932474374771118, -24.241552352905273, -2.3230583667755127, -9.34307861328125, -0.9638671875, -0.354248046875, -0.246337890625, 0, 
142, 3284179511, -0.06207594275474548, -0.6315197944641113, 0.034602221101522446, -0.7720960378646851, 0.9999980330467224, -0.001826070249080658, -0.00028903596103191376, -0.0007119402289390564, 0.06943678855895996, 0.005044341087341309, 0.02430945634841919, 8.333161354064941, 0.6059527397155762, 2.915945529937744, -25.111291885375977, -3.97469162940979, -9.790279388427734, -0.96533203125, -0.360107421875, -0.246337890625, 0, 
143, 3284187844, -0.0640341192483902, -0.6315059065818787, 0.03570152446627617, -0.7718973159790039, 0.9999979138374329, -0.0018719863146543503, -0.00041848979890346527, -0.0007367581129074097, 0.06944411993026733, 0.005758404731750488, 0.023943841457366943, 8.334321022033691, 0.6918001770973206, 2.8711767196655273, -25.742706298828125, -5.754881858825684, -10.131564140319824, -0.9638671875, -0.357177734375, -0.246826171875, 0, 
144, 3284196177, -0.06586742401123047, -0.6318486332893372, 0.036768533289432526, -0.7714122533798218, 0.999997615814209, -0.001953117549419403, -0.0005773976445198059, -0.000779295340180397, 0.07026159763336182, 0.006655752658843994, 0.023493528366088867, 8.43273639678955, 0.7997918725013733, 2.816019058227539, -26.858388900756836, -7.940110206604004, -10.716516494750977, -0.962890625, -0.357666015625, -0.245361328125, 0, 
145, 3284204510, -0.06794699281454086, -0.6320013999938965, 0.03792673721909523, -0.771050751209259, 0.9999974966049194, -0.0019885264337062836, -0.0006578043103218079, -0.0008057430386543274, 0.07144725322723389, 0.006966531276702881, 0.022964417934417725, 8.575150489807129, 0.8374485969543457, 2.7518630027770996, -27.345317840576172, -9.045828819274902, -11.080214500427246, -0.96435546875, -0.360107421875, -0.249755859375, 0, 
146, 3284212843, -0.06984663754701614, -0.6324650645256042, 0.039016757160425186, -0.770446240901947, 0.9999973773956299, -0.0020088106393814087, -0.0007458459585905075, -0.0008289217948913574, 0.07259303331375122, 0.0077942609786987305, 0.02204805612564087, 8.712706565856934, 0.937256932258606, 2.641258716583252, -27.62425994873047, -10.256537437438965, -11.398958206176758, -0.96337890625, -0.363037109375, -0.246826171875, 0, 
147, 3284221176, -0.0720062106847763, -0.6327630281448364, 0.04019375517964363, -0.7699419260025024, 0.9999971985816956, -0.0020377300679683685, -0.0008637849241495132, -0.0008627492934465408, 0.074307382106781, 0.009390056133270264, 0.02065730094909668, 8.91840648651123, 1.129492998123169, 2.4735801219940186, -28.021949768066406, -11.878381729125977, -11.864141464233398, -0.96240234375, -0.363037109375, -0.246826171875, 0, 
148, 3284229509, -0.07401181012392044, -0.6333743929862976, 0.04132280498743057, -0.7691888809204102, 0.9999969601631165, -0.0021009761840105057, -0.000952916219830513, -0.0009027328342199326, 0.07606923580169678, 0.010185420513153076, 0.019598960876464844, 9.129807472229004, 1.2256044149398804, 2.3458385467529297, -28.891679763793945, -13.104076385498047, -12.41397762298584, -0.9599609375, -0.364013671875, -0.249267578125, 0, 
149, 3284237842, -0.0763087123632431, -0.6337519288063049, 0.042533259838819504, -0.7685874700546265, 0.9999966621398926, -0.002179056406021118, -0.000985458493232727, -0.0009551085531711578, 0.07879984378814697, 0.009963572025299072, 0.018727362155914307, 9.457430839538574, 1.1998251676559448, 2.240648031234741, -29.96540641784668, -13.551584243774414, -13.134224891662598, -0.96142578125, -0.366943359375, -0.250244140625, 0, 
150, 3284246175, -0.07844886928796768, -0.6343497633934021, 0.04367842152714729, -0.7678143382072449, 0.9999966025352478, -0.0022000521421432495, -0.0009513888508081436, -0.0009974893182516098, 0.07963395118713379, 0.010923683643341064, 0.01846688985824585, 9.557254791259766, 1.315552830696106, 2.2099151611328125, -30.254131317138672, -13.083073616027832, -13.717025756835938, -0.95751953125, -0.3681640625, -0.248291015625, 0, 
151, 3284254508, -0.08080058544874191, -0.6347200870513916, 0.04489052668213844, -0.7671941518783569, 0.999996542930603, -0.0022391658276319504, -0.0009864922612905502, -0.0009914226830005646, 0.08172929286956787, 0.011849820613861084, 0.01760232448577881, 9.808578491210938, 1.4270366430282593, 2.1058719158172607, -30.79200553894043, -13.565800666809082, -13.633601188659668, -0.9560546875, -0.369140625, -0.248779296875, 0, 
152, 3284262841, -0.08299242705106735, -0.6353337168693542, 0.04616500437259674, -0.766376256942749, 0.9999963045120239, -0.0023325365036726, -0.0010008495301008224, -0.000959884375333786, 0.08429861068725586, 0.012471377849578857, 0.01794523000717163, 10.116952896118164, 1.5013165473937988, 2.146885871887207, -32.07600402832031, -13.763236999511719, -13.19990348815918, -0.95751953125, -0.368408203125, -0.252685546875, 0, 
153, 3284271174, -0.08549758791923523, -0.6356629133224487, 0.047623831778764725, -0.7657381892204285, 0.9999960064888, -0.002491360530257225, -0.0009720157831907272, -0.0009328033775091171, 0.08656042814254761, 0.01177281141281128, 0.01881396770477295, 10.38853931427002, 1.416861653327942, 2.2511961460113525, -34.26008224487305, -13.366728782653809, -12.827497482299805, -0.95703125, -0.3671875, -0.249755859375, 0, 
154, 3284279507, -0.0878671258687973, -0.6361660957336426, 0.04914602264761925, -0.764955461025238, 0.9999956488609314, -0.002642495557665825, -0.000907285138964653, -0.0009310450404882431, 0.08857202529907227, 0.010447084903717041, 0.01952570676803589, 10.630023002624512, 1.2574105262756348, 2.336850881576538, -36.33842849731445, -12.476582527160645, -12.803318977355957, -0.95654296875, -0.3720703125, -0.252197265625, 0, 
155, 3284287840, -0.09054560214281082, -0.6363561153411865, 0.050756845623254776, -0.7643796801567078, 0.9999954700469971, -0.0027401484549045563, -0.000824490562081337, -0.0009474065154790878, 0.08946609497070312, 0.009532570838928223, 0.020282447338104248, 10.737279891967773, 1.147463321685791, 2.428273916244507, -37.68130874633789, -11.338030815124512, -13.02831745147705, -0.95703125, -0.371826171875, -0.253662109375, 0, 
156, 3284296173, -0.09305138885974884, -0.6367195844650269, 0.052320998162031174, -0.7636702656745911, 0.9999954104423523, -0.002769637852907181, -0.0007514581084251404, -0.000995691865682602, 0.08963561058044434, 0.009183943271636963, 0.020246565341949463, 10.757430076599121, 1.1061081886291504, 2.4246513843536377, -38.08683776855469, -10.333720207214355, -13.692315101623535, -0.9560546875, -0.374755859375, -0.254638671875, 0, 
157, 3284304506, -0.09580933302640915, -0.6368263959884644, 0.05388098955154419, -0.7631315588951111, 0.9999954104423523, -0.0027556903660297394, -0.0007245130836963654, -0.0010257549583911896, 0.08890193700790405, 0.00850057601928711, 0.019918739795684814, 10.669342994689941, 1.0244749784469604, 2.385425567626953, -37.89503860473633, -9.963183403015137, -14.105728149414062, -0.95556640625, -0.375732421875, -0.256591796875, 0, 
158, 3284312839, -0.0983523428440094, -0.6371245384216309, 0.05543641373515129, -0.7624475955963135, 0.9999953508377075, -0.0027911458164453506, -0.0006835442036390305, -0.0010243207216262817, 0.08746612071990967, 0.007748544216156006, 0.01993352174758911, 10.49703311920166, 0.9339379668235779, 2.3875467777252197, -38.38261032104492, -9.399799346923828, -14.08600902557373, -0.953125, -0.37548828125, -0.256103515625, 0, 
159, 3284321172, -0.10117321461439133, -0.6371683478355408, 0.05707978457212448, -0.7619202136993408, 0.9999951720237732, -0.0028670839965343475, -0.0006708260625600815, -0.0010125432163476944, 0.0865052342414856, 0.007666885852813721, 0.018785178661346436, 10.381621360778809, 0.9241113066673279, 2.2499938011169434, -39.426876068115234, -9.224905014038086, -13.924047470092773, -0.953125, -0.37890625, -0.257080078125, 0, 
160, 3284329505, -0.10378306359052658, -0.6374248266220093, 0.058773692697286606, -0.7612254619598389, 0.9999949336051941, -0.00294368714094162, -0.000669628381729126, -0.0009862352162599564, 0.0863727331161499, 0.007144272327423096, 0.01821810007095337, 10.36575698852539, 0.8611332178115845, 2.181851625442505, -40.48029327392578, -9.20843505859375, -13.562272071838379, -0.95263671875, -0.3779296875, -0.261474609375, 0, 
161, 3284337838, -0.10665322840213776, -0.6374237537384033, 0.06056701019406319, -0.7606890201568604, 0.9999948143959045, -0.003015642985701561, -0.0006520301103591919, -0.0009508505463600159, 0.08677971363067627, 0.006057322025299072, 0.017681241035461426, 10.4146728515625, 0.7304185032844543, 2.1172358989715576, -41.46980667114258, -8.966432571411133, -13.07568073272705, -0.951171875, -0.376953125, -0.261962890625, 0, 
162, 3284346171, -0.10929863154888153, -0.6376386880874634, 0.06240243464708328, -0.7599847912788391, 0.9999946355819702, -0.0030787549912929535, -0.0006577502936124802, -0.0009221900254487991, 0.08731067180633545, 0.005284786224365234, 0.017175734043121338, 10.47846794128418, 0.6375206708908081, 2.0562357902526855, -42.33768844604492, -9.045093536376953, -12.681553840637207, -0.9482421875, -0.3798828125, -0.264892578125, 0, 
163, 3284354504, -0.1122206598520279, -0.6376112103462219, 0.06431025266647339, -0.7594227194786072, 0.9999944567680359, -0.00313466414809227, -0.0006522499024868011, -0.0009180605411529541, 0.08791035413742065, 0.004641592502593994, 0.01735818386077881, 10.550509452819824, 0.5601722598075867, 2.077936887741089, -43.106529235839844, -8.96945571899414, -12.62476634979248, -0.94775390625, -0.37890625, -0.266845703125, 0, 
164, 3284362837, -0.11495867371559143, -0.6377595067024231, 0.06616751104593277, -0.7587287425994873, 0.9999943375587463, -0.003160739317536354, -0.000597810372710228, -0.0009737405925989151, 0.08825308084487915, 0.004245579242706299, 0.017475426197052002, 10.591547966003418, 0.5131789445877075, 2.0924177169799805, -43.465110778808594, -8.220829010009766, -13.390457153320312, -0.951171875, -0.379150390625, -0.268310546875, 0, 
165, 3284371170, -0.11800707876682281, -0.6376694440841675, 0.06799828261137009, -0.7581743001937866, 0.9999942183494568, -0.0031719133257865906, -0.0005777608603239059, -0.001063590869307518, 0.08823627233505249, 0.00475919246673584, 0.01738196611404419, 10.589371681213379, 0.575779378414154, 2.0816152095794678, -43.618770599365234, -7.94511604309082, -14.62603759765625, -0.947265625, -0.37939453125, -0.267333984375, 0, 
166, 3284379503, -0.12090516835451126, -0.6377947926521301, 0.0697576031088829, -0.7574520111083984, 0.9999940395355225, -0.0031927768141031265, -0.0005773212760686874, -0.0011598356068134308, 0.08761543035507202, 0.005768299102783203, 0.017489969730377197, 10.514676094055176, 0.6977162957191467, 2.095029592514038, -43.905677795410156, -7.939070701599121, -15.949554443359375, -0.946044921875, -0.3828125, -0.272216796875, 0, 
167, 3284387836, -0.12406930327415466, -0.6376851201057434, 0.07153916358947754, -0.7568663358688354, 0.9999939799308777, -0.0032062530517578125, -0.000563405454158783, -0.001188524067401886, 0.08647745847702026, 0.006001293659210205, 0.016877830028533936, 10.377991676330566, 0.7260282039642334, 2.0218887329101562, -44.090999603271484, -7.747707366943359, -16.344066619873047, -0.944580078125, -0.38330078125, -0.277587890625, 0, 
168, 3284396169, -0.12700247764587402, -0.6377779245376587, 0.07331714779138565, -0.756131112575531, 0.9999939203262329, -0.003233896568417549, -0.0005617048591375351, -0.0011743661016225815, 0.0855482816696167, 0.00640183687210083, 0.015635550022125244, 10.266352653503418, 0.7742463946342468, 1.873063564300537, -44.47114181518555, -7.7243218421936035, -16.14937400817871, -0.942138671875, -0.3876953125, -0.276123046875, 0, 
169, 3284404502, -0.13016512989997864, -0.637627124786377, 0.07520903646945953, -0.7555347084999084, 0.9999938011169434, -0.0033016521483659744, -0.0005487408488988876, -0.0011188481003046036, 0.08498555421829224, 0.005465507507324219, 0.014217674732208252, 10.198872566223145, 0.6616701483726501, 1.702763557434082, -45.40288162231445, -7.54604434967041, -15.385910987854004, -0.943603515625, -0.3876953125, -0.274169921875, 0, 
170, 3284412835, -0.13310964405536652, -0.6375724673271179, 0.07706653326749802, -0.7548803687095642, 0.9999938011169434, -0.003313841298222542, -0.00040870532393455505, -0.001111149787902832, 0.08301252126693726, 0.0046097636222839355, 0.013572633266448975, 9.96194839477539, 0.5588744282722473, 1.6265463829040527, -45.57050704956055, -5.620338439941406, -15.280052185058594, -0.941650390625, -0.38623046875, -0.278076171875, 0, 
171, 3284421168, -0.13625408709049225, -0.6373079419136047, 0.07889271527528763, -0.7543536424636841, 0.9999940395355225, -0.003242233768105507, -0.0004029199481010437, -0.001130182296037674, 0.08285683393478394, 0.004326581954956055, 0.012899994850158691, 9.94325065612793, 0.5254310965538025, 1.5457451343536377, -44.58578872680664, -5.540779113769531, -15.541776657104492, -0.942626953125, -0.38720703125, -0.282958984375, 0, 
172, 3284429501, -0.13917359709739685, -0.6371798515319824, 0.08057548850774765, -0.7537508010864258, 0.9999942183494568, -0.0031717419624328613, -0.0002996046096086502, -0.0011913012713193893, 0.08288323879241943, 0.00417017936706543, 0.013532578945159912, 9.946273803710938, 0.5071380734443665, 1.6225897073745728, -43.61641311645508, -4.120031833648682, -16.38225555419922, -0.941650390625, -0.388671875, -0.2861328125, 0, 
173, 3284437834, -0.142349511384964, -0.636748731136322, 0.08221518248319626, -0.7533448934555054, 0.9999942779541016, -0.003137689083814621, -0.00016304850578308105, -0.0012476500123739243, 0.08199650049209595, 0.004190504550933838, 0.014352142810821533, 9.83962345123291, 0.5097447633743286, 1.722306489944458, -43.148136138916016, -2.2421720027923584, -17.157140731811523, -0.938720703125, -0.392578125, -0.28857421875, 0, 
174, 3284446167, -0.14529898762702942, -0.6364737749099731, 0.08372589945793152, -0.7528476715087891, 0.9999944567680359, -0.003072962164878845, -0.00009577348828315735, -0.0012971218675374985, 0.0803413987159729, 0.004218995571136475, 0.014718711376190186, 9.640861511230469, 0.513384222984314, 1.7669563293457031, -42.25803756713867, -1.3170353174209595, -17.837453842163086, -0.937255859375, -0.39306640625, -0.29248046875, 0, 
175, 3284454500, -0.1484258621931076, -0.6360024809837341, 0.08520115911960602, -0.7524703145027161, 0.999994695186615, -0.0029759369790554047, -0.00008663907647132874, -0.001310722902417183, 0.07956951856613159, 0.004895329475402832, 0.015105903148651123, 9.548108100891113, 0.594581663608551, 1.813708782196045, -40.92378234863281, -1.1914225816726685, -18.024486541748047, -0.937744140625, -0.392578125, -0.29296875, 0, 
176, 3284462833, -0.15123960375785828, -0.6357170939445496, 0.08657003939151764, -0.7519948482513428, 0.9999950528144836, -0.002879304811358452, -0.00006538629531860352, -0.0012814830988645554, 0.07789868116378784, 0.005433619022369385, 0.015380382537841797, 9.347498893737793, 0.6587154865264893, 1.8469905853271484, -39.59492874145508, -0.8991634845733643, -17.622392654418945, -0.93701171875, -0.39404296875, -0.2978515625, 0, 
177, 3284471166, -0.1541883498430252, -0.6352580189704895, 0.08797986805438995, -0.7516202926635742, 0.9999952912330627, -0.0028215423226356506, -0.00009520724415779114, -0.001224597916007042, 0.07657009363174438, 0.00613933801651001, 0.014920949935913086, 9.188044548034668, 0.7429537177085876, 1.7917966842651367, -38.80060577392578, -1.3092479705810547, -16.84012794494629, -0.93359375, -0.39599609375, -0.29833984375, 0, 
178, 3284479499, -0.1568414270877838, -0.6350164413452148, 0.08937972038984299, -0.7511101365089417, 0.9999954104423523, -0.0027964934706687927, -0.00013977661728858948, -0.001150377094745636, 0.0757068395614624, 0.007166564464569092, 0.014599740505218506, 9.08443832397461, 0.8655641078948975, 1.7531778812408447, -38.45614242553711, -1.9221463203430176, -15.819478034973145, -0.93115234375, -0.39697265625, -0.30078125, 0, 
179, 3284487832, -0.15968449413776398, -0.63459312915802, 0.09088825434446335, -0.7506875395774841, 0.9999954700469971, -0.0028063058853149414, -0.000171782448887825, -0.001091044396162033, 0.07507908344268799, 0.007370173931121826, 0.01408606767654419, 9.009174346923828, 0.8895382881164551, 1.6913341283798218, -38.59107971191406, -2.362276315689087, -15.003561019897461, -0.93115234375, -0.39453125, -0.30322265625, 0, 
180, 3284496165, -0.16226142644882202, -0.6343744397163391, 0.09238556772470474, -0.7501368522644043, 0.9999954700469971, -0.0028210487216711044, -0.00020577013492584229, -0.0010400712490081787, 0.07535821199417114, 0.0079231858253479, 0.013490378856658936, 9.042689323425293, 0.9556618332862854, 1.6197370290756226, -38.793819427490234, -2.829660177230835, -14.302600860595703, -0.9296875, -0.39794921875, -0.30908203125, 0, 
181, 3284504498, -0.1650618016719818, -0.6339532732963562, 0.09397013485431671, -0.7496849894523621, 0.9999953508377075, -0.002859516069293022, -0.00020446069538593292, -0.0010188855230808258, 0.07568138837814331, 0.00821608304977417, 0.013654172420501709, 9.08145523071289, 0.9905420541763306, 1.6395343542099, -39.32279968261719, -2.811652898788452, -14.01126480102539, -0.9306640625, -0.400390625, -0.31103515625, 0, 
182, 3284512831, -0.16761481761932373, -0.6337164640426636, 0.09549839049577713, -0.7491254806518555, 0.9999954700469971, -0.0028327256441116333, -0.0002057161182165146, -0.0010025333613157272, 0.07601815462112427, 0.00791323184967041, 0.014326512813568115, 9.121944427490234, 0.9538947939872742, 1.720066785812378, -38.95438766479492, -2.8289167881011963, -13.786395072937012, -0.9306640625, -0.3994140625, -0.310546875, 0, 
183, 3284521164, -0.170329287648201, -0.6332889199256897, 0.09704284369945526, -0.7486761212348938, 0.9999956488609314, -0.0027818959206342697, -0.0001941528171300888, -0.0009783245623111725, 0.07675051689147949, 0.007919132709503174, 0.014723420143127441, 9.20984172821045, 0.9544277191162109, 1.767740249633789, -38.25539779663086, -2.6699037551879883, -13.453486442565918, -0.9306640625, -0.39697265625, -0.3154296875, 0, 
184, 3284529497, -0.1728026270866394, -0.6330129504203796, 0.09856781363487244, -0.7481432557106018, 0.9999956488609314, -0.0027836058288812637, -0.0001672934740781784, -0.0009368788450956345, 0.07751250267028809, 0.008050978183746338, 0.014331400394439697, 9.301253318786621, 0.9700769782066345, 1.7209721803665161, -38.27891540527344, -2.3005456924438477, -12.883543014526367, -0.927734375, -0.3984375, -0.318359375, 0, 
185, 3284537830, -0.17548148334026337, -0.6324979066848755, 0.10017523169517517, -0.7477418184280396, 0.9999955892562866, -0.0028267093002796173, -0.00010893121361732483, -0.0008959118276834488, 0.07830816507339478, 0.008969008922576904, 0.014643609523773193, 9.39658260345459, 1.0797687768936157, 1.7593225240707397, -38.87165069580078, -1.4979736804962158, -12.320183753967285, -0.9248046875, -0.39892578125, -0.31884765625, 0, 
186, 3284546163, -0.1779635101556778, -0.6320754885673523, 0.1017918810248375, -0.7472940683364868, 0.9999955296516418, -0.002874409779906273, -0.00001961551606655121, -0.0008561443537473679, 0.07877695560455322, 0.009631216526031494, 0.014886319637298584, 9.452656745910645, 1.1587493419647217, 1.7895712852478027, -39.527618408203125, -0.2697439193725586, -11.773319244384766, -0.925537109375, -0.40283203125, -0.32373046875, 0, 
187, 3284554496, -0.18067140877246857, -0.6314160823822021, 0.10349864512681961, -0.7469671964645386, 0.9999954104423523, -0.0029177404940128326, 0.00003764498978853226, -0.0008218102157115936, 0.0786098837852478, 0.00913149118423462, 0.015975773334503174, 9.432591438293457, 1.0979753732681274, 1.9207196235656738, -40.12348175048828, 0.5176773071289062, -11.301172256469727, -0.926025390625, -0.40087890625, -0.32470703125, 0, 
188, 3284562829, -0.18311333656311035, -0.6309105753898621, 0.10516425222158432, -0.7465670704841614, 0.9999955296516418, -0.002895638346672058, 0.00005903560668230057, -0.0007783342152833939, 0.07797670364379883, 0.007914841175079346, 0.016498446464538574, 9.356721878051758, 0.9513669610023499, 1.9831994771957397, -39.81953811645508, 0.8118316531181335, -10.70330810546875, -0.926513671875, -0.40478515625, -0.32666015625, 0, 
189, 3284571162, -0.1856842041015625, -0.6302514672279358, 0.10688251256942749, -0.7462444305419922, 0.9999957084655762, -0.0028389431536197662, 0.0000272383913397789, -0.0007089152932167053, 0.07799863815307617, 0.007000267505645752, 0.016384243965148926, 9.359561920166016, 0.8411156535148621, 1.9688258171081543, -39.039886474609375, 0.3745702803134918, -9.748688697814941, -0.922119140625, -0.40185546875, -0.32958984375, 0, 
190, 3284579495, -0.18793736398220062, -0.6298341751098633, 0.1085546463727951, -0.7457913160324097, 0.9999959468841553, -0.002770606428384781, -0.00006216391921043396, -0.0006526391953229904, 0.077816903591156, 0.005888760089874268, 0.016193091869354248, 9.338061332702637, 0.7073888182640076, 1.944627046585083, -38.10014343261719, -0.8548505306243896, -8.97480297088623, -0.925048828125, -0.4013671875, -0.33447265625, 0, 
191, 3284587828, -0.1903233379125595, -0.6293469071388245, 0.11027039587497711, -0.7453455924987793, 0.9999961256980896, -0.0027047041803598404, -0.00019630230963230133, -0.0006147995591163635, 0.07792145013809204, 0.005779623985290527, 0.015594065189361572, 9.3508882522583, 0.6942687630653381, 1.871403455734253, -37.19388961791992, -2.6994621753692627, -8.454449653625488, -0.924072265625, -0.4013671875, -0.3359375, 0, 
192, 3284596161, -0.1924157291650772, -0.6291639804840088, 0.11190774291753769, -0.7447184324264526, 0.9999963045120239, -0.0026180241256952286, -0.00035816803574562073, -0.0006135255098342896, 0.07908868789672852, 0.005706846714019775, 0.015026092529296875, 9.49124526977539, 0.68595290184021, 1.8015973567962646, -36.00190353393555, -4.92536735534668, -8.436929702758789, -0.923583984375, -0.39990234375, -0.33837890625, 0, 
193, 3284604494, -0.19467765092849731, -0.6288900375366211, 0.11353489756584167, -0.74411541223526, 0.9999964833259583, -0.0025308895856142044, -0.0004479996860027313, -0.00063331238925457, 0.08022278547286987, 0.005587100982666016, 0.015118122100830078, 9.627506256103516, 0.6719855666160583, 1.8116334676742554, -34.80366134643555, -6.160691738128662, -8.709028244018555, -0.921630859375, -0.40087890625, -0.337890625, 0, 
194, 3284612827, -0.19664761424064636, -0.6288304924964905, 0.11506859213113785, -0.7434118390083313, 0.9999967217445374, -0.002448407933115959, -0.0004924088716506958, -0.0006163325160741806, 0.08098483085632324, 0.005803048610687256, 0.015125155448913574, 9.719032287597656, 0.6979417204856873, 1.8120123147964478, -33.66940689086914, -6.77138614654541, -8.4755277633667, -0.91796875, -0.40087890625, -0.344482421875, 0, 
195, 3284621160, -0.19875800609588623, -0.6286099553108215, 0.1166180744767189, -0.7427955269813538, 0.9999969005584717, -0.002362675964832306, -0.0004936754703521729, -0.0005801226943731308, 0.08133465051651001, 0.006238043308258057, 0.01501697301864624, 9.761003494262695, 0.7500038743019104, 1.799057126045227, -32.49046325683594, -6.788804054260254, -7.977587699890137, -0.921875, -0.40283203125, -0.345947265625, 0, 
196, 3284629493, -0.2005874365568161, -0.6285432577133179, 0.11809790879487991, -0.7421261668205261, 0.999997079372406, -0.002317400649189949, -0.0004719402641057968, -0.0005383715033531189, 0.08112108707427979, 0.006554126739501953, 0.015237152576446533, 9.735358238220215, 0.7875303626060486, 1.8257663249969482, -31.867856979370117, -6.4899115562438965, -7.403443813323975, -0.91845703125, -0.4013671875, -0.347412109375, 0, 
197, 3284637826, -0.20257769525051117, -0.6283214092254639, 0.1196322962641716, -0.7415273189544678, 0.9999971389770508, -0.002277662977576256, -0.0004887599498033524, -0.0005001183599233627, 0.08051884174346924, 0.007238566875457764, 0.015380918979644775, 9.663113594055176, 0.8692917823791504, 1.8430473804473877, -31.32139778137207, -6.721207141876221, -6.877402305603027, -0.91796875, -0.40234375, -0.344482421875, 0, 
198, 3284646159, -0.20427840948104858, -0.6282908916473389, 0.12112517654895782, -0.7408438920974731, 0.9999972581863403, -0.0022403690963983536, -0.0005261525511741638, -0.00044182129204273224, 0.08071810007095337, 0.00805598497390747, 0.01575791835784912, 9.687125205993652, 0.9668021202087402, 1.888099193572998, -30.808547973632812, -7.23541259765625, -6.0757269859313965, -0.91796875, -0.40087890625, -0.350341796875, 0, 
199, 3284654492, -0.20616400241851807, -0.628121018409729, 0.12270199507474899, -0.7402060031890869, 0.9999971985816956, -0.002249881625175476, -0.0005702376365661621, -0.0004136282950639725, 0.08108621835708618, 0.008292853832244873, 0.016146421432495117, 9.731430053710938, 0.9948493838310242, 1.9343291521072388, -30.939359664916992, -7.841651439666748, -5.688030242919922, -0.9189453125, -0.400390625, -0.349853515625, 0, 
200, 3284662825, -0.20785747468471527, -0.6281379461288452, 0.1242542564868927, -0.7394587397575378, 0.9999971389770508, -0.002277698367834091, -0.0006149671971797943, -0.00041815079748630524, 0.08112096786499023, 0.008532464504241943, 0.01631838083267212, 9.735682487487793, 1.0235493183135986, 1.9546222686767578, -31.32188606262207, -8.45675277709961, -5.750222206115723, -0.9189453125, -0.4033203125, -0.349853515625, 0, 
201, 3284671158, -0.20979848504066467, -0.6280431151390076, 0.125870019197464, -0.7387173175811768, 0.9999970197677612, -0.002309851348400116, -0.000689242035150528, -0.00046019069850444794, 0.08141648769378662, 0.008659183979034424, 0.016295254230499268, 9.771236419677734, 1.0391262769699097, 1.9511760473251343, -31.7640380859375, -9.478147506713867, -6.328336238861084, -0.91748046875, -0.39990234375, -0.350341796875, 0, 
202, 3284679491, -0.21156413853168488, -0.6281620264053345, 0.12741638720035553, -0.7378470301628113, 0.9999969005584717, -0.0023126229643821716, -0.0007580183446407318, -0.0005138721317052841, 0.08194679021835327, 0.00855112075805664, 0.016412317752838135, 9.834973335266113, 1.0266791582107544, 1.964465856552124, -31.802156448364258, -10.423928260803223, -7.0665388107299805, -0.91650390625, -0.400390625, -0.355224609375, 0, 
203, 3284687824, -0.21352842450141907, -0.6281822919845581, 0.12895765900611877, -0.7369957566261292, 0.9999969601631165, -0.002267761155962944, -0.0008232053369283676, -0.0005625411868095398, 0.08268707990646362, 0.008566737174987793, 0.01561117172241211, 9.923809051513672, 1.0293880701065063, 1.8675768375396729, -31.18523406982422, -11.320350646972656, -7.735814094543457, -0.91796875, -0.40087890625, -0.353271484375, 0, 
204, 3284696157, -0.21527698636054993, -0.6283681988716125, 0.13043053448200226, -0.736068844795227, 0.9999969601631165, -0.002240533009171486, -0.0008302517235279083, -0.0005680862814188004, 0.08377981185913086, 0.009199321269989014, 0.014632105827331543, 10.054805755615234, 1.1057409048080444, 1.7500617504119873, -30.810802459716797, -11.417248725891113, -7.812066555023193, -0.91796875, -0.39892578125, -0.355224609375, 0, 
205, 3284704490, -0.217225581407547, -0.6283531188964844, 0.13199977576732635, -0.735228955745697, 0.9999970197677612, -0.0022610556334257126, -0.0007936488837003708, -0.000521346926689148, 0.08454000949859619, 0.009818077087402344, 0.013397812843322754, 10.145866394042969, 1.1798760890960693, 1.602409839630127, -31.0930233001709, -10.913904190063477, -7.169329643249512, -0.916015625, -0.3994140625, -0.354736328125, 0, 
206, 3284712823, -0.21895895898342133, -0.6284196972846985, 0.13359123468399048, -0.7343701124191284, 0.9999969005584717, -0.002334883436560631, -0.0007278770208358765, -0.0004521142691373825, 0.08484882116317749, 0.010505080223083496, 0.013553023338317871, 10.182880401611328, 1.2614713907241821, 1.6219511032104492, -32.10826873779297, -10.009437561035156, -6.21727180480957, -0.91650390625, -0.3974609375, -0.354248046875, 0, 
207, 3284721156, -0.22096653282642365, -0.6282116174697876, 0.13532385230064392, -0.7336289882659912, 0.9999967217445374, -0.0024581048637628555, -0.0006130635738372803, -0.0004151631146669388, 0.08489936590194702, 0.011345267295837402, 0.013966083526611328, 10.188791275024414, 1.3615989685058594, 1.673099398612976, -33.80276107788086, -8.430575370788574, -5.709136962890625, -0.91796875, -0.39990234375, -0.358154296875, 0, 
208, 3284729489, -0.2228628396987915, -0.62801593542099, 0.13705302774906158, -0.7329015731811523, 0.9999964833259583, -0.0025783441960811615, -0.0004616975784301758, -0.0004210192710161209, 0.08394795656204224, 0.01151961088180542, 0.013694941997528076, 10.074334144592285, 1.3824135065078735, 1.642372488975525, -35.456233978271484, -6.349058628082275, -5.789669036865234, -0.91796875, -0.40087890625, -0.357666015625, 0, 
209, 3284737822, -0.225058913230896, -0.6275639533996582, 0.13881546258926392, -0.732285737991333, 0.9999963641166687, -0.002631865441799164, -0.0003305785357952118, -0.00046944618225097656, 0.08280473947525024, 0.011195659637451172, 0.013671040534973145, 9.936877250671387, 1.3438788652420044, 1.640841007232666, -36.19223403930664, -4.5459675788879395, -6.45561408996582, -0.91357421875, -0.39990234375, -0.360107421875, 0, 
210, 3284746155, -0.22708891332149506, -0.6272045373916626, 0.14044860005378723, -0.7316552996635437, 0.9999964237213135, -0.00261494517326355, -0.00024160370230674744, -0.0005351230502128601, 0.08151930570602417, 0.0107344388961792, 0.013632595539093018, 9.7824125289917, 1.289140224456787, 1.6369826793670654, -35.959564208984375, -3.3224265575408936, -7.358774185180664, -0.915771484375, -0.39697265625, -0.364501953125, 0, 
211, 3284754488, -0.22935360670089722, -0.6267099976539612, 0.14207936823368073, -0.7310575246810913, 0.9999964833259583, -0.0025773905217647552, -0.00024314969778060913, -0.0005865655839443207, 0.08088749647140503, 0.010140061378479004, 0.01401984691619873, 9.706583023071289, 1.2182103395462036, 1.6832245588302612, -35.44312286376953, -3.3436858654022217, -8.066186904907227, -0.916015625, -0.39892578125, -0.361083984375, 0, 
212, 3284762821, -0.2313993275165558, -0.626372754573822, 0.14358122646808624, -0.730408251285553, 0.9999966025352478, -0.0025263112038373947, -0.00023799017071723938, -0.0006363485008478165, 0.08096528053283691, 0.009237945079803467, 0.014413893222808838, 9.715926170349121, 1.1104130744934082, 1.730226993560791, -34.74070358276367, -3.2727341651916504, -8.750779151916504, -0.914794921875, -0.39892578125, -0.370361328125, 0, 
213, 3284771154, -0.23365850746631622, -0.6258971691131592, 0.1450565606355667, -0.7298049330711365, 0.9999967217445374, -0.0024495497345924377, -0.000220615416765213, -0.0006793830543756485, 0.08113628625869751, 0.008054733276367188, 0.01499086618423462, 9.736483573913574, 0.968809962272644, 1.799196720123291, -33.685115814208984, -3.0338046550750732, -9.342573165893555, -0.915771484375, -0.3955078125, -0.371337890625, 0, 
214, 3284779487, -0.23561455309391022, -0.6255699992179871, 0.146356463432312, -0.7291967868804932, 0.999997079372406, -0.0023142751306295395, -0.0001861266791820526, -0.0006892737001180649, 0.08127015829086304, 0.006765961647033691, 0.015233516693115234, 9.752589225769043, 0.8144418001174927, 1.8281608819961548, -31.824874877929688, -2.55953049659729, -9.478582382202148, -0.916259765625, -0.395751953125, -0.374755859375, 0, 
215, 3284787820, -0.23763641715049744, -0.6251283884048462, 0.14757604897022247, -0.7286733388900757, 0.9999974966049194, -0.002121858298778534, -0.00016942061483860016, -0.0006562881171703339, 0.0813785195350647, 0.005430877208709717, 0.015919089317321777, 9.76570987701416, 0.654080331325531, 1.9100981950759888, -29.178834915161133, -2.3297955989837646, -9.024977684020996, -0.912841796875, -0.39794921875, -0.371826171875, 0, 
216, 3284796153, -0.23929737508296967, -0.6248701214790344, 0.14864857494831085, -0.7281330823898315, 0.9999979138374329, -0.0019374135881662369, -0.0001839715987443924, -0.0006103925406932831, 0.0812462568283081, 0.004083454608917236, 0.017045974731445312, 9.750016212463379, 0.49202868342399597, 2.044753313064575, -26.64243507385254, -2.5298941135406494, -8.393843650817871, -0.911376953125, -0.396484375, -0.372802734375, 0, 
217, 3284804486, -0.24100361764431, -0.6245196461677551, 0.1496933400630951, -0.7276567816734314, 0.9999982714653015, -0.0017561186105012894, -0.00020890496671199799, -0.0005380921065807343, 0.0819353461265564, 0.0032544732093811035, 0.017513751983642578, 9.832862854003906, 0.3921579420566559, 2.10036301612854, -24.14934539794922, -2.8727660179138184, -7.399598121643066, -0.911376953125, -0.4013671875, -0.375732421875, 0, 
218, 3284812819, -0.24232745170593262, -0.6243451833724976, 0.150568887591362, -0.7271860241889954, 0.9999986290931702, -0.0015529170632362366, -0.00020498968660831451, -0.0004836488515138626, 0.08294576406478882, 0.003113687038421631, 0.017538368701934814, 9.954140663146973, 0.37520092725753784, 2.103231906890869, -21.35500717163086, -2.81892466545105, -6.650918483734131, -0.914306640625, -0.397705078125, -0.377685546875, 0, 
219, 3284821152, -0.2436692714691162, -0.6240549087524414, 0.15135245025157928, -0.7268241047859192, 0.9999990463256836, -0.0012978557497262955, -0.00017266348004341125, -0.0004211384803056717, 0.08363568782806396, 0.0037041306495666504, 0.017333924770355225, 10.036853790283203, 0.4460296034812927, 2.0790069103240967, -17.84752082824707, -2.374389410018921, -5.791304111480713, -0.912353515625, -0.400390625, -0.380126953125, 0, 
220, 3284829485, -0.2446168065071106, -0.6239190101623535, 0.15188796818256378, -0.7265108227729797, 0.9999994039535522, -0.0010375510901212692, -0.00010918267071247101, -0.000389615073800087, 0.08353757858276367, 0.00483393669128418, 0.01739048957824707, 10.024911880493164, 0.5818524360656738, 2.0864458084106445, -14.267925262451172, -1.501429796218872, -5.357807159423828, -0.912841796875, -0.39794921875, -0.376708984375, 0, 
221, 3284837818, -0.2456483691930771, -0.6236045956611633, 0.15233223140239716, -0.7263395190238953, 0.9999995827674866, -0.0008462630212306976, -0.000002041459083557129, -0.00036489032208919525, 0.08286792039871216, 0.006008923053741455, 0.01706671714782715, 9.944293975830078, 0.7229617238044739, 2.048668146133423, -11.637419700622559, -0.028073204681277275, -5.01780366897583, -0.912353515625, -0.39794921875, -0.378173828125, 0, 
222, 3284846151, -0.24638450145721436, -0.6233896613121033, 0.15259414911270142, -0.7262197732925415, 0.9999997019767761, -0.0006968043744564056, 0.00010337028652429581, -0.00034692324697971344, 0.08208853006362915, 0.006420791149139404, 0.017523348331451416, 9.85052490234375, 0.7725068926811218, 2.104464530944824, -9.582132339477539, 1.421500563621521, -4.770728588104248, -0.912841796875, -0.39892578125, -0.379150390625, 0, 
223, 3284854484, -0.24723266065120697, -0.6229784488677979, 0.15279920399188995, -0.7262412309646606, 0.9999997615814209, -0.0005515441298484802, 0.00021930690854787827, -0.00032106228172779083, 0.08173906803131104, 0.005008280277252197, 0.01759237051010132, 9.808436393737793, 0.6029655933380127, 2.1136062145233154, -7.584580898284912, 3.015807867050171, -4.415101051330566, -0.910400390625, -0.40185546875, -0.378173828125, 0, 
224, 3284862817, -0.24777339398860931, -0.6226855516433716, 0.15286444127559662, -0.7262943983078003, 0.9999998211860657, -0.00042491406202316284, 0.00028605107218027115, -0.0002728477120399475, 0.08093547821044922, 0.005939900875091553, 0.017627179622650146, 9.71186637878418, 0.7145204544067383, 2.118345022201538, -5.843222618103027, 3.933642625808716, -3.7520761489868164, -0.910400390625, -0.39990234375, -0.382568359375, 0, 
225, 3284871150, -0.24842838943004608, -0.6222586035728455, 0.1529601812362671, -0.7264164686203003, 0.9999998807907104, -0.00034366361796855927, 0.00029002595692873, -0.00022391043603420258, 0.0813746452331543, 0.006569802761077881, 0.017323553562164307, 9.764610290527344, 0.7897980809211731, 2.081841230392456, -4.725903034210205, 3.98830246925354, -3.0791127681732178, -0.908447265625, -0.3984375, -0.380126953125, 0, 
226, 3284879483, -0.2488870918750763, -0.6219308376312256, 0.15302248299121857, -0.7265270948410034, 0.9999998807907104, -0.00037151575088500977, 0.0003349417820572853, -0.00019505061209201813, 0.08155101537704468, 0.007416427135467529, 0.017232537269592285, 9.785616874694824, 0.8911851048469543, 2.0717179775238037, -5.108913421630859, 4.6059651374816895, -2.6822457313537598, -0.906005859375, -0.4013671875, -0.383544921875, 0, 
227, 3284887816, -0.24961310625076294, -0.62142413854599, 0.1532147377729416, -0.726671040058136, 0.9999998211860657, -0.00046547316014766693, 0.00034884829074144363, -0.00019728206098079681, 0.0817517638206482, 0.007492244243621826, 0.016304612159729004, 9.809720039367676, 0.900156557559967, 1.9605759382247925, -6.400971412658691, 4.797200679779053, -2.7129316329956055, -0.905517578125, -0.40234375, -0.385498046875, 0, 
228, 3284896149, -0.2502099275588989, -0.6210029721260071, 0.15338996052742004, -0.7267889380455017, 0.9999997615814209, -0.0005615204572677612, 0.00039996858686208725, -0.00020876340568065643, 0.08180224895477295, 0.008029401302337646, 0.016232728958129883, 9.815703392028809, 0.9644985795021057, 1.9523673057556152, -7.721770763397217, 5.500183582305908, -2.8708181381225586, -0.91015625, -0.3994140625, -0.385498046875, 0, 
229, 3284904482, -0.2510755658149719, -0.6203811168670654, 0.15367424488067627, -0.7269611358642578, 0.9999997019767761, -0.0006357729434967041, 0.0004498148337006569, -0.00021517276763916016, 0.08130395412445068, 0.007892787456512451, 0.01597541570663452, 9.755791664123535, 0.9480553269386292, 1.9221388101577759, -8.7428560256958, 6.185645580291748, -2.958956718444824, -0.909423828125, -0.40087890625, -0.385009765625, 0, 
230, 3284912815, -0.2517378032207489, -0.6198855638504028, 0.15389131009578705, -0.7271089553833008, 0.9999996423721313, -0.0006466004997491837, 0.000471639446914196, -0.00021099671721458435, 0.0810856819152832, 0.006992518901824951, 0.014644861221313477, 9.72966480255127, 0.8400521874427795, 1.7625887393951416, -8.891752243041992, 6.4857683181762695, -2.9015297889709473, -0.90625, -0.39892578125, -0.388427734375, 0, 
231, 3284921148, -0.2525548040866852, -0.6192272305488586, 0.15413807332515717, -0.7273343205451965, 0.9999997019767761, -0.0005887076258659363, 0.0005120774731040001, -0.00018494576215744019, 0.08138370513916016, 0.006418883800506592, 0.013600289821624756, 9.765437126159668, 0.7711575627326965, 1.6376619338989258, -8.095635414123535, 7.041853427886963, -2.5432887077331543, -0.90966796875, -0.3994140625, -0.389404296875, 0, 
232, 3284929481, -0.25310876965522766, -0.6186782121658325, 0.1542702317237854, -0.7275809049606323, 0.9999997019767761, -0.0005160514265298843, 0.0005760574713349342, -0.0001513306051492691, 0.08168774843215942, 0.004136323928833008, 0.012978315353393555, 9.801942825317383, 0.4970631003379822, 1.5634088516235352, -7.096501350402832, 7.9216766357421875, -2.081028938293457, -0.9052734375, -0.3984375, -0.388916015625, 0, 
233, 3284937814, -0.25379130244255066, -0.6179646849632263, 0.15444456040859222, -0.7279125452041626, 0.9999997019767761, -0.00046453438699245453, 0.000618436373770237, -0.00010025873780250549, 0.08216631412506104, 0.0037201642990112305, 0.01342076063156128, 9.859330177307129, 0.44667211174964905, 1.6167336702346802, -6.388062477111816, 8.504451751708984, -1.3787119388580322, -0.90771484375, -0.40234375, -0.390869140625, 0, 
234, 3284946147, -0.25429567694664, -0.6173757314682007, 0.15453040599822998, -0.7282179594039917, 0.9999997019767761, -0.0004524923861026764, 0.0006451094523072243, -0.0001223590224981308, 0.08298462629318237, 0.004310667514801025, 0.014113008975982666, 9.957414627075195, 0.5177450776100159, 1.7001818418502808, -6.222466468811035, 8.871247291564941, -1.6826245784759521, -0.90771484375, -0.39892578125, -0.395263671875, 0, 
235, 3284954480, -0.25498947501182556, -0.6165871620178223, 0.1545698046684265, -0.7286350727081299, 0.9999996423721313, -0.0003765895962715149, 0.000767330639064312, -0.00016226992011070251, 0.08421826362609863, 0.0012045502662658691, 0.014970183372497559, 10.105213165283203, 0.14549902081489563, 1.8041805028915405, -5.17868709564209, 10.55197811126709, -2.231461524963379, -0.9033203125, -0.3994140625, -0.3935546875, 0, 
236, 3284962813, -0.25547125935554504, -0.6158499717712402, 0.1543453335762024, -0.7291371822357178, 0.9999995231628418, -0.00021994486451148987, 0.000949702225625515, -0.00022383034229278564, 0.08484530448913574, -0.0015331506729125977, 0.015568971633911133, 10.180085182189941, -0.18209409713745117, 1.8781038522720337, -3.024580717086792, 13.059867858886719, -3.0780117511749268, -0.90478515625, -0.40087890625, -0.39599609375, 0, 
237, 3284971146, -0.25603094696998596, -0.6149206161499023, 0.1539076417684555, -0.7298173308372498, 0.9999993443489075, 0.00005271565169095993, 0.0011365367099642754, -0.00027643702924251556, 0.0840233564376831, -0.0027952194213867188, 0.01654428243637085, 10.081036567687988, -0.332547664642334, 1.9968699216842651, 0.724921464920044, 15.629129409790039, -3.8014349937438965, -0.90283203125, -0.3974609375, -0.3994140625, 0, 
238, 3284979479, -0.2562955915927887, -0.6141056418418884, 0.15318457782268524, -0.7305625081062317, 0.9999991059303284, 0.00029509980231523514, 0.001249522902071476, -0.0002976860851049423, 0.08285218477249146, -0.003137052059173584, 0.017511844635009766, 9.940152168273926, -0.3728978633880615, 2.1139774322509766, 4.058077335357666, 17.1828670501709, -4.093642711639404, -0.9033203125, -0.40185546875, -0.39697265625, 0, 
239, 3284987812, -0.2566039562225342, -0.6131192445755005, 0.15237410366535187, -0.731451690196991, 0.999998927116394, 0.0005111461505293846, 0.0013673258945345879, -0.00026809796690940857, 0.08162397146224976, -0.0032410025596618652, 0.018765151500701904, 9.792283058166504, -0.385152131319046, 2.265514850616455, 7.029047012329102, 18.802837371826172, -3.686760187149048, -0.90283203125, -0.40185546875, -0.40087890625, 0, 
240, 3284996145, -0.2566460967063904, -0.6122386455535889, 0.15139253437519073, -0.7323777079582214, 0.9999987483024597, 0.0006314301863312721, 0.0014405464753508568, -0.00023668259382247925, 0.07998865842819214, -0.002031862735748291, 0.01937955617904663, 9.595718383789062, -0.24008528888225555, 2.339637279510498, 8.68313980102539, 19.809738159179688, -3.254750967025757, -0.89794921875, -0.40185546875, -0.39990234375, 0, 
241, 3285004478, -0.25675222277641296, -0.6111963391304016, 0.15045394003391266, -0.7334038019180298, 0.9999986290931702, 0.0007110768929123878, 0.0014911936596035957, -0.0001719556748867035, 0.0786515474319458, -0.0008297562599182129, 0.01890188455581665, 9.435175895690918, -0.09632080793380737, 2.2825253009796143, 9.778404235839844, 20.50621223449707, -2.3646557331085205, -0.900390625, -0.39990234375, -0.40380859375, 0, 
242, 3285012811, -0.25660276412963867, -0.6102827787399292, 0.14945809543132782, -0.7344197630882263, 0.9999985694885254, 0.0007643243297934532, 0.0014942167326807976, -0.00007621943950653076, 0.07770395278930664, -0.00033479928970336914, 0.018047869205474854, 9.321596145629883, -0.03780044987797737, 2.1798346042633057, 10.510640144348145, 20.547786712646484, -1.0481349229812622, -0.897705078125, -0.3994140625, -0.40625, 0, 
243, 3285021144, -0.2564435601234436, -0.6092655658721924, 0.14855705201625824, -0.7355020642280579, 0.9999985694885254, 0.0008767461404204369, 0.0014574406668543816, 0.00005066860467195511, 0.07797384262084961, 0.00004225969314575195, 0.016615331172943115, 9.354326248168945, 0.006347674876451492, 2.0075292587280273, 12.056612968444824, 20.04205894470215, 0.6967715620994568, -0.89697265625, -0.40478515625, -0.40673828125, 0, 
244, 3285029477, -0.255958616733551, -0.6083777546882629, 0.1475643366575241, -0.7366049289703369, 0.9999983906745911, 0.000986115075647831, 0.0014769667759537697, 0.00019127782434225082, 0.07823812961578369, 0.002025425434112549, 0.016931116580963135, 9.385991096496582, 0.24327300488948822, 2.0454344749450684, 13.5606050491333, 20.31057357788086, 2.6303653717041016, -0.8955078125, -0.40234375, -0.40673828125, 0, 
245, 3285037810, -0.255494624376297, -0.6073017716407776, 0.1466592699289322, -0.7378334999084473, 0.9999982118606567, 0.001054803840816021, 0.0015444578602910042, 0.0003074267879128456, 0.0785112977027893, 0.003981888294219971, 0.018743574619293213, 9.41838550567627, 0.4773251712322235, 2.263417959213257, 14.505182266235352, 21.238679885864258, 4.227593421936035, -0.8955078125, -0.404296875, -0.40771484375, 0, 
246, 3285046143, -0.25483304262161255, -0.6062887907028198, 0.14568471908569336, -0.7390874028205872, 0.9999980330467224, 0.0010702898725867271, 0.0016298452392220497, 0.000390087254345417, 0.07920390367507935, 0.003788471221923828, 0.020005345344543457, 9.501094818115234, 0.45349952578544617, 2.4157769680023193, 14.7181396484375, 22.41288948059082, 5.364302635192871, -0.897216796875, -0.404296875, -0.4111328125, 0, 
247, 3285054476, -0.25428691506385803, -0.6050661206245422, 0.1447785198688507, -0.7404541969299316, 0.9999978542327881, 0.0010616285726428032, 0.0017234152182936668, 0.0004146238788962364, 0.07938343286514282, 0.0035718679428100586, 0.02031177282333374, 9.522366523742676, 0.4272875487804413, 2.4534432888031006, 14.599038124084473, 23.699628829956055, 5.701720714569092, -0.895751953125, -0.4033203125, -0.40869140625, 0, 
248, 3285062809, -0.25363272428512573, -0.6039226055145264, 0.14374087750911713, -0.7418129444122314, 0.9999976754188538, 0.001094684936106205, 0.001806573010981083, 0.00039267074316740036, 0.07815283536911011, 0.0021528005599975586, 0.02127993106842041, 9.374190330505371, 0.257465660572052, 2.5703630447387695, 15.05361270904541, 24.84317398071289, 5.399830341339111, -0.895751953125, -0.40380859375, -0.4130859375, 0, 
249, 3285071142, -0.25303956866264343, -0.6026588082313538, 0.14268726110458374, -0.7432454228401184, 0.999997615814209, 0.001160849817097187, 0.0018194401636719704, 0.0003713509067893028, 0.07629132270812988, -0.00034373998641967773, 0.021354258060455322, 9.150633811950684, -0.04166840761899948, 2.5793240070343018, 15.963480949401855, 25.020116806030273, 5.106649398803711, -0.895263671875, -0.40234375, -0.416015625, 0, 
250, 3285079475, -0.25230079889297485, -0.6015794277191162, 0.14152750372886658, -0.7445915341377258, 0.9999975562095642, 0.0012507783249020576, 0.0017696516588330269, 0.0003699185326695442, 0.07449722290039062, -0.002160787582397461, 0.021425724029541016, 8.935372352600098, -0.25938835740089417, 2.5873148441314697, 17.20014190673828, 24.335453033447266, 5.086953163146973, -0.894775390625, -0.404296875, -0.41845703125, 0, 
251, 3285087808, -0.25153106451034546, -0.6004633903503418, 0.14042891561985016, -0.7459595799446106, 0.999997615814209, 0.001363488845527172, 0.0016579320654273033, 0.00044120755046606064, 0.07295393943786621, -0.0035800933837890625, 0.021646320819854736, 8.750321388244629, -0.4299411475658417, 2.6127469539642334, 18.750085830688477, 22.799135208129883, 6.067287445068359, -0.893310546875, -0.400390625, -0.4169921875, 0, 
252, 3285096141, -0.25046253204345703, -0.5995941162109375, 0.13931548595428467, -0.7472259998321533, 0.999997615814209, 0.0014561032876372337, 0.0015065660700201988, 0.0005943989381194115, 0.07195276021957397, -0.0040604472160339355, 0.02143394947052002, 8.630508422851562, -0.48865145444869995, 2.5858798027038574, 20.02367401123047, 20.717615127563477, 8.173904418945312, -0.892333984375, -0.4013671875, -0.41845703125, 0, 
253, 3285104474, -0.2492770105600357, -0.5987153649330139, 0.138393372297287, -0.7484974265098572, 0.9999976754188538, 0.0015046438202261925, 0.001314404420554638, 0.0007848581299185753, 0.07198268175125122, -0.004458725452423096, 0.02103900909423828, 8.634512901306152, -0.5380498766899109, 2.5369722843170166, 20.691181182861328, 18.07509422302246, 10.793013572692871, -0.891357421875, -0.40576171875, -0.41796875, 0, 
254, 3285112807, -0.2478274554014206, -0.5980857014656067, 0.13754421472549438, -0.7496378421783447, 0.9999977350234985, 0.0015290630981326103, 0.0011322824284434319, 0.0009733801707625389, 0.07260030508041382, -0.004777252674102783, 0.019847452640533447, 8.709128379821777, -0.5781165957450867, 2.3925139904022217, 21.026981353759766, 15.570635795593262, 13.385483741760254, -0.894287109375, -0.3974609375, -0.41748046875, 0, 
255, 3285121140, -0.24623602628707886, -0.5974411368370056, 0.1368536502122879, -0.7508015036582947, 0.9999976754188538, 0.0015555648133158684, 0.0009517138823866844, 0.0011413907632231712, 0.07426279783248901, -0.005350589752197266, 0.018706142902374268, 8.90902328491211, -0.6487581133842468, 2.254291534423828, 21.39142417907715, 13.08753776550293, 15.695891380310059, -0.891845703125, -0.4033203125, -0.4189453125, 0, 
256, 3285129473, -0.24447476863861084, -0.5969898700714111, 0.13619402050971985, -0.7518552541732788, 0.9999975562095642, 0.001605459488928318, 0.000856318511068821, 0.0012750132009387016, 0.07643228769302368, -0.005737662315368652, 0.017148494720458984, 9.169589042663574, -0.6969498991966248, 2.0668845176696777, 22.077552795410156, 11.775705337524414, 17.53340721130371, -0.895263671875, -0.3984375, -0.42041015625, 0, 
257, 3285137806, -0.24270178377628326, -0.5964001417160034, 0.1355845332145691, -0.753007173538208, 0.9999974966049194, 0.0016136588528752327, 0.0008579837158322334, 0.0013031447306275368, 0.0782245397567749, -0.004799306392669678, 0.016390085220336914, 9.384876251220703, -0.5849897861480713, 1.9758737087249756, 22.190309524536133, 11.798606872558594, 17.920259475708008, -0.893798828125, -0.39599609375, -0.41845703125, 0, 
258, 3285146139, -0.24094001948833466, -0.5959174036979675, 0.13492140173912048, -0.7540735006332397, 0.9999974966049194, 0.0016023209318518639, 0.0008875923231244087, 0.0012808023020625114, 0.07949542999267578, -0.004790782928466797, 0.016330063343048096, 9.537344932556152, -0.5840098261833191, 1.9690992832183838, 22.03439712524414, 12.205770492553711, 17.613018035888672, -0.898681640625, -0.3974609375, -0.41748046875, 0, 
259, 3285154472, -0.2392904907464981, -0.5952746272087097, 0.13428647816181183, -0.7552189230918884, 0.999997615814209, 0.0015645725652575493, 0.0009220605716109276, 0.0011929413303732872, 0.08051151037216187, -0.004232883453369141, 0.01661628484725952, 9.659321784973145, -0.5163441896438599, 2.0037155151367188, 21.515295028686523, 12.679759979248047, 16.404788970947266, -0.896240234375, -0.39599609375, -0.4189453125, 0, 
260, 3285162805, -0.2377404421567917, -0.5947411060333252, 0.13354343175888062, -0.7562599182128906, 0.9999977946281433, 0.001520874910056591, 0.0009578028693795204, 0.0010744845494627953, 0.08083879947662354, -0.0037422776222229004, 0.016920149326324463, 9.69861125946045, -0.4564141631126404, 2.0404675006866455, 20.914386749267578, 13.171271324157715, 14.775827407836914, -0.899658203125, -0.3955078125, -0.41748046875, 0, 
261, 3285171138, -0.2363405078649521, -0.5940779447555542, 0.13281717896461487, -0.7573468685150146, 0.9999980926513672, 0.001446436159312725, 0.0009605186060070992, 0.0009198570623993874, 0.08057266473770142, -0.0025643110275268555, 0.017249226570129395, 9.66682243347168, -0.3136447072029114, 2.0797581672668457, 19.89073944091797, 13.208619117736816, 12.649458885192871, -0.897705078125, -0.39453125, -0.41845703125, 0, 
262, 3285179471, -0.23512700200080872, -0.5935280323028564, 0.132037952542305, -0.7582913041114807, 0.9999983310699463, 0.0013315295800566673, 0.0009656315669417381, 0.0007777689024806023, 0.08004337549209595, -0.0017995238304138184, 0.01755446195602417, 9.603384971618652, -0.22060979902744293, 2.1161773204803467, 18.310588836669922, 13.278925895690918, 10.695524215698242, -0.899169921875, -0.39306640625, -0.41748046875, 0, 
263, 3285187804, -0.23407019674777985, -0.592827558517456, 0.13139395415782928, -0.7592774033546448, 0.9999986886978149, 0.0011299783363938332, 0.0009576762095093727, 0.0006720954552292824, 0.0787588357925415, -0.0011619329452514648, 0.01796644926071167, 9.44926929473877, -0.14335942268371582, 2.165292978286743, 15.538945198059082, 13.169524192810059, 9.242348670959473, -0.899658203125, -0.39111328125, -0.42041015625, 0, 
264, 3285196137, -0.23320533335208893, -0.5922848582267761, 0.13085299730300903, -0.7600601315498352, 0.9999990463256836, 0.000924346037209034, 0.0008535357192158699, 0.0006157485768198967, 0.0779157280921936, -0.0008171796798706055, 0.017823338508605957, 9.348367691040039, -0.10185231268405914, 2.1469781398773193, 12.711183547973633, 11.737431526184082, 8.46749210357666, -0.898681640625, -0.3916015625, -0.41552734375, 0, 
265, 3285204470, -0.23238708078861237, -0.5916557908058167, 0.13050171732902527, -0.7608606815338135, 0.9999992251396179, 0.0007736971601843834, 0.0007622269913554192, 0.0006081284955143929, 0.07825338840484619, -0.000920712947845459, 0.01800161600112915, 9.389065742492676, -0.11452796310186386, 2.16752552986145, 10.639527320861816, 10.481796264648438, 8.362704277038574, -0.900634765625, -0.390625, -0.4189453125, 0, 
266, 3285212803, -0.23164322972297668, -0.5911729335784912, 0.13020367920398712, -0.7615135908126831, 0.9999993443489075, 0.0006649354472756386, 0.0006896788254380226, 0.0006294110789895058, 0.07956546545028687, -0.001756906509399414, 0.01830357313156128, 9.546589851379395, -0.21537546813488007, 2.2032289505004883, 9.143885612487793, 9.484145164489746, 8.65537166595459, -0.900634765625, -0.3896484375, -0.41748046875, 0, 
267, 3285221136, -0.23087254166603088, -0.5905835628509521, 0.13005465269088745, -0.7622301578521729, 0.999999463558197, 0.0005475981160998344, 0.0006425986066460609, 0.0006482461467385292, 0.08097022771835327, -0.0026082396507263184, 0.018884778022766113, 9.715154647827148, -0.31805554032325745, 2.272676706314087, 7.5303168296813965, 8.83672046661377, 8.91438102722168, -0.901611328125, -0.392578125, -0.42236328125, 0, 
268, 3285229469, -0.2302580624818802, -0.5900548696517944, 0.12996487319469452, -0.7628405094146729, 0.999999463558197, 0.00041372794657945633, 0.0006675878539681435, 0.0006499504670500755, 0.08175450563430786, -0.0037293434143066406, 0.01906675100326538, 9.809104919433594, -0.45298734307289124, 2.294861078262329, 5.68939733505249, 9.180362701416016, 8.937820434570312, -0.899658203125, -0.38720703125, -0.4208984375, 0, 
269, 3285237802, -0.2296590805053711, -0.589361310005188, 0.12994718551635742, -0.7635599970817566, 0.9999995231628418, 0.0003128582611680031, 0.0007194681093096733, 0.0005979212000966072, 0.08180814981460571, -0.004412472248077393, 0.01958000659942627, 9.815337181091309, -0.5347064733505249, 2.3570010662078857, 4.302282333374023, 9.893793106079102, 8.222336769104004, -0.905517578125, -0.390869140625, -0.42138671875, 0, 
270, 3285246135, -0.22926636040210724, -0.5887506008148193, 0.12990087270736694, -0.7641568183898926, 0.9999995827674866, 0.00022930745035409927, 0.0007405681535601616, 0.0005137016996741295, 0.08180534839630127, -0.006126761436462402, 0.019428670406341553, 9.814927101135254, -0.7397446036338806, 2.3389663696289062, 3.1533305644989014, 10.183953285217285, 7.064189434051514, -0.901123046875, -0.38720703125, -0.4228515625, 0, 
271, 3285254468, -0.2288457155227661, -0.588029146194458, 0.12986114621162415, -0.7648449540138245, 0.9999995827674866, 0.0001943623647093773, 0.0007529845461249352, 0.000428822822868824, 0.0814356803894043, -0.006606042385101318, 0.01941704750061035, 9.770610809326172, -0.7964283227920532, 2.337519884109497, 2.672781229019165, 10.354694366455078, 5.896972179412842, -0.900390625, -0.3837890625, -0.421875, 0, 
272, 3285262801, -0.22864602506160736, -0.5874019861221313, 0.12975144386291504, -0.7654049396514893, 0.9999996423721313, 0.00015577580779790878, 0.0007705138996243477, 0.0003222385421395302, 0.08107608556747437, -0.006465733051300049, 0.019451618194580078, 9.727486610412598, -0.7786648869514465, 2.3418354988098145, 2.1421568393707275, 10.59575080871582, 4.431275844573975, -0.90283203125, -0.388916015625, -0.42578125, 0, 
273, 3285271134, -0.22837619483470917, -0.5866764783859253, 0.12962396442890167, -0.7660632133483887, 0.9999996423721313, 0.00013964343816041946, 0.0007800338789820671, 0.00023449677973985672, 0.08069831132888794, -0.0064247846603393555, 0.019910991191864014, 9.68212890625, -0.7729485630989075, 2.397103786468506, 1.9203124046325684, 10.726666450500488, 3.224691867828369, -0.90283203125, -0.384521484375, -0.4267578125, 0, 
274, 3285279467, -0.22832174599170685, -0.5860339403152466, 0.1294914335012436, -0.7665935158729553, 0.9999996423721313, 0.00008067768067121506, 0.0007884269580245018, 0.0001923656091094017, 0.08078587055206299, -0.006722390651702881, 0.020513951778411865, 9.692625045776367, -0.8083614706993103, 2.4693710803985596, 1.1094423532485962, 10.842084884643555, 2.6453230381011963, -0.90185546875, -0.38623046875, -0.42431640625, 0, 
275, 3285287800, -0.22822612524032593, -0.5852426290512085, 0.12945865094661713, -0.7672317624092102, 0.9999996423721313, -0.000026738271117210388, 0.0008253799751400948, 0.0001553734764456749, 0.08037430047988892, -0.006733238697052002, 0.021410763263702393, 9.643023490905762, -0.8096085786819458, 2.5774359703063965, -0.36769232153892517, 11.350244522094727, 2.136624336242676, -0.90283203125, -0.386474609375, -0.4287109375, 0, 
276, 3285296133, -0.22835567593574524, -0.5845059752464294, 0.12940604984760284, -0.7677634358406067, 0.9999996423721313, -0.00010959245264530182, 0.0008664196357131004, 0.00011016521602869034, 0.07953804731369019, -0.006492555141448975, 0.0225180983543396, 9.542516708374023, -0.7804856896400452, 2.710463762283325, -1.5070648193359375, 11.914602279663086, 1.5149412155151367, -0.90380859375, -0.387451171875, -0.42822265625, 0, 
277, 3285304466, -0.228367879986763, -0.583672046661377, 0.1293722242116928, -0.768399715423584, 0.9999995827674866, -0.0001635141670703888, 0.0008689230307936668, 0.00004473421722650528, 0.0779988169670105, -0.006075561046600342, 0.022802352905273438, 9.357845306396484, -0.7299531698226929, 2.744313955307007, -2.2485713958740234, 11.949028015136719, 0.6151642799377441, -0.90283203125, -0.383056640625, -0.4326171875, 0, 
278, 3285312799, -0.22864538431167603, -0.5829832553863525, 0.12932731211185455, -0.768847644329071, 0.9999996423721313, -0.0002015884965658188, 0.000797678716480732, -0.00002479366958141327, 0.07639169692993164, -0.005683422088623047, 0.023045480251312256, 9.165153503417969, -0.6823725700378418, 2.7728264331817627, -2.7721519470214844, 10.96930980682373, -0.3409511148929596, -0.89990234375, -0.3818359375, -0.4306640625, 0, 
