PacketCounter,SampleTimeFine,Quat_W,Quat_X,Quat_Y,Quat_Z,Acc_X,Acc_Y,Acc_Z,Gyr_X,Gyr_Y,Gyr_Z,
0, 147637054, 0.020428981631994247, 0.6447591185569763, 0.009968800470232964, 0.7645248174667358, 0, 0, 0, 0, 0, 0, 
1, 147645387, 0.019507601857185364, 0.6445252895355225, 0.010578878223896027, 0.7647377848625183, 9.74930191040039, 0.6425958275794983, 1.734571099281311, 14.47774600982666, 4.641365051269531, 4.301822185516357, 
2, 147653720, 0.01862296462059021, 0.6443061232566833, 0.011135664768517017, 0.7649365663528442, 9.753743171691895, 0.5652218461036682, 1.771653413772583, 13.598666191101074, 4.342933654785156, 4.3872971534729, 
3, 147662053, 0.019604157656431198, 0.6436254978179932, 0.012138403952121735, 0.7649933099746704, 9.758601188659668, 0.5882453322410583, 1.77799654006958, 12.933104515075684, 3.993170738220215, 4.120960235595703, 
4, 147670386, 0.0188172347843647, 0.6434423327445984, 0.012639288790524006, 0.765159010887146, 9.746553421020508, 0.5092936158180237, 1.8035402297973633, 12.157708168029785, 3.6583919525146484, 3.85941219329834, 
5, 147678719, 0.020433412864804268, 0.6426137089729309, 0.013457955792546272, 0.7657997608184814, 9.76220417022705, 0.5002720952033997, 1.837141513824463, 11.594017028808594, 3.3321690559387207, 3.496715545654297, 
6, 147687052, 0.019748535007238388, 0.6424646377563477, 0.0139247365295887, 0.7659344673156738, 9.762982368469238, 0.4610021710395813, 1.8872721195220947, 10.900945663452148, 3.017241954803467, 3.0975935459136963, 
7, 147695385, 0.02039804495871067, 0.6415120959281921, 0.014593993313610554, 0.7667027711868286, 9.762277603149414, 0.44882890582084656, 1.9000576734542847, 10.174639701843262, 2.7435922622680664, 2.9014525413513184, 
8, 147703718, 0.01981501840054989, 0.6413886547088623, 0.015001099556684494, 0.7668135166168213, 9.728547096252441, 0.45044323801994324, 1.9395331144332886, 9.37833309173584, 2.5095674991607666, 2.562051296234131, 
9, 147712051, 0.019809499382972717, 0.640376627445221, 0.015342575497925282, 0.7676523327827454, 9.647422790527344, 0.39777064323425293, 1.8972563743591309, 8.515082359313965, 2.3792169094085693, 2.244306802749634, 
10, 147720384, 0.019337603822350502, 0.6402626037597656, 0.015679003670811653, 0.7677527070045471, 9.556879997253418, 0.3462490439414978, 1.8969528675079346, 7.654865264892578, 2.2777717113494873, 2.0228841304779053, 
11, 147728717, 0.019053377211093903, 0.6393117904663086, 0.01578344963490963, 0.7685495018959045, 9.463189125061035, 0.3377382159233093, 1.8573256731033325, 6.690246105194092, 2.455188274383545, 1.9222073554992676, 
12, 147737050, 0.018687842413783073, 0.6391736268997192, 0.016042880713939667, 0.7686680555343628, 9.367204666137695, 0.35323506593704224, 1.8941614627838135, 5.893796920776367, 2.64880633354187, 1.583945870399475, 
13, 147745383, 0.01805363968014717, 0.6383663415908813, 0.016075288876891136, 0.7693531513214111, 9.327688217163086, 0.3487849533557892, 1.9449254274368286, 5.093838691711426, 2.8966240882873535, 1.3808505535125732, 
14, 147753716, 0.017780059948563576, 0.6381939053535461, 0.016267996281385422, 0.7694984674453735, 9.347001075744629, 0.3783203959465027, 1.9774435758590698, 4.3662285804748535, 3.208413600921631, 1.1998733282089233, 
15, 147762049, 0.017342980951070786, 0.6374148726463318, 0.01611148566007614, 0.7701570987701416, 9.347430229187012, 0.3946094214916229, 2.0491509437561035, 3.3372018337249756, 3.2286489009857178, 0.7179926633834839, 
16, 147770382, 0.01719963364303112, 0.6372535824775696, 0.016232885420322418, 0.7702911496162415, 9.372200012207031, 0.4317694306373596, 2.0764076709747314, 2.4733357429504395, 2.9429728984832764, 0.45075929164886475, 
17, 147778715, 0.016961578279733658, 0.6365074515342712, 0.01599924825131893, 0.7709179520606995, 9.387639999389648, 0.4604410231113434, 2.12516713142395, 1.8217101097106934, 2.2811014652252197, 0.42250683903694153, 
18, 147787048, 0.016883084550499916, 0.6364108920097351, 0.016044100746512413, 0.770998477935791, 9.440230369567871, 0.4840351939201355, 2.1403493881225586, 1.1227871179580688, 1.7560991048812866, 0.43632566928863525, 
19, 147795381, 0.0167204812169075, 0.635682225227356, 0.01586686260998249, 0.7716066241264343, 9.491536140441895, 0.49039891362190247, 2.1250739097595215, 0.5273458361625671, 1.4274556636810303, 0.5625910758972168, 
20, 147803714, 0.016688689589500427, 0.6356046795845032, 0.015840481966733932, 0.7716717720031738, 9.612470626831055, 0.48187270760536194, 2.077200174331665, -0.03352903202176094, 1.3919928073883057, 0.5650883913040161, 
21, 147812047, 0.016579139977693558, 0.6348925232887268, 0.01573234051465988, 0.7722623944282532, 9.659527778625488, 0.4680391252040863, 2.0855185985565186, -0.7633297443389893, 1.364150047302246, 0.5927518010139465, 
22, 147820380, 0.01661582849919796, 0.6348093152046204, 0.015630193054676056, 0.7723321318626404, 9.744485855102539, 0.40507039427757263, 2.0878686904907227, -1.4395967721939087, 1.4590123891830444, 0.499170184135437, 
23, 147828713, 0.016832349821925163, 0.6341726183891296, 0.015310115180909634, 0.7728568315505981, 9.817031860351562, 0.3483986258506775, 2.082857608795166, -2.0680034160614014, 1.6574714183807373, 0.4371069669723511, 
24, 147837046, 0.016919847577810287, 0.6340711712837219, 0.015152018517255783, 0.7729412317276001, 9.816011428833008, 0.30673494935035706, 2.0943686962127686, -2.4840686321258545, 1.7577000856399536, 0.4464561343193054, 
25, 147845379, 0.016926981508731842, 0.6335211396217346, 0.014949812553822994, 0.7733958959579468, 9.826265335083008, 0.2706032395362854, 2.0976719856262207, -3.009071111679077, 1.578631043434143, 0.3803201913833618, 
26, 147853712, 0.017067600041627884, 0.6334419846534729, 0.014735598117113113, 0.7734618186950684, 9.833292007446289, 0.2721487283706665, 2.08727765083313, -3.5363011360168457, 1.3347833156585693, 0.37071481347084045, 
27, 147862045, 0.017191462218761444, 0.6329830288887024, 0.014352950267493725, 0.7738416790962219, 9.824098587036133, 0.2813817262649536, 2.0721728801727295, -4.012918472290039, 1.2381666898727417, 0.22817161679267883, 
28, 147870378, 0.017391221597790718, 0.6329143643379211, 0.014097347855567932, 0.7738980650901794, 9.785852432250977, 0.32736900448799133, 2.059598445892334, -4.486448764801025, 1.1204692125320435, 0.09892218559980392, 
29, 147878711, 0.017602255567908287, 0.6325304508209229, 0.013605797663331032, 0.7742158770561218, 9.723153114318848, 0.35111865401268005, 2.0891237258911133, -4.880766868591309, 1.0295897722244263, -0.08757506310939789, 
30, 147887044, 0.017849942669272423, 0.6324759721755981, 0.013345591723918915, 0.7742592692375183, 9.660443305969238, 0.32469794154167175, 2.085063934326172, -4.945340633392334, 0.8443604111671448, -0.37258467078208923, 
31, 147895377, 0.018017716705799103, 0.6321797966957092, 0.012939388863742352, 0.7745041847229004, 9.595325469970703, 0.2886471748352051, 2.1265218257904053, -5.008632659912109, 0.2895817160606384, -0.5826982259750366, 
32, 147903710, 0.018286535516381264, 0.6321932077407837, 0.012702882289886475, 0.7744908332824707, 9.55839729309082, 0.2555390000343323, 2.128774881362915, -4.849287033081055, -0.3695109784603119, -0.8083853125572205, 
33, 147912043, 0.01841479167342186, 0.6319846510887146, 0.012372740544378757, 0.7746632695198059, 9.522659301757812, 0.14794613420963287, 2.14654541015625, -4.532093048095703, -0.8350625038146973, -0.976504385471344, 
34, 147920376, 0.018657295033335686, 0.6320568919181824, 0.012204953469336033, 0.7746012806892395, 9.504043579101562, 0.06761042773723602, 2.143019914627075, -3.864471197128296, -1.3952330350875854, -1.1301257610321045, 
35, 147928709, 0.018681172281503677, 0.6319099068641663, 0.011978200636804104, 0.7747243046760559, 9.525402069091797, -0.02827768586575985, 2.1740901470184326, -3.156646728515625, -1.7110049724578857, -1.266623854637146, 
36, 147937042, 0.018852047622203827, 0.6320208311080933, 0.011914473958313465, 0.7746307253837585, 9.51248836517334, -0.07433929294347763, 2.1980092525482178, -2.1184895038604736, -2.042978525161743, -1.2733219861984253, 
37, 147945375, 0.018847130239009857, 0.6319263577461243, 0.011675804853439331, 0.7747113704681396, 9.479866027832031, -0.09034609794616699, 2.223834276199341, -1.0459316968917847, -2.4442641735076904, -1.316955804824829, 
38, 147953708, 0.01893799938261509, 0.6320748329162598, 0.011717399582266808, 0.7745873928070068, 9.49874496459961, -0.09576334059238434, 2.2407989501953125, -0.28754541277885437, -2.668619394302368, -1.3398550748825073, 
39, 147962041, 0.018770020455121994, 0.632005512714386, 0.011558703146874905, 0.7746504545211792, 9.489012718200684, -0.044594116508960724, 2.2324588298797607, 0.4935350716114044, -2.897507905960083, -1.321720004081726, 
40, 147970374, 0.01878982223570347, 0.6321703791618347, 0.011677701026201248, 0.7745137214660645, 9.496095657348633, 0.045034009963274, 2.2195706367492676, 1.1603121757507324, -2.922123670578003, -1.2556610107421875, 
41, 147978707, 0.018699640408158302, 0.6321020126342773, 0.011413739994168282, 0.7745755910873413, 9.497817993164062, 0.12700265645980835, 2.1847801208496094, 1.742011308670044, -2.905243396759033, -1.1774606704711914, 
42, 147987040, 0.018659871071577072, 0.6322651505470276, 0.011571940965950489, 0.774441123008728, 9.497016906738281, 0.19376051425933838, 2.2087693214416504, 2.095231533050537, -2.8647727966308594, -0.9614046216011047, 
43, 147995373, 0.018282253295183182, 0.6322017312049866, 0.011522969231009483, 0.7745026350021362, 9.501582145690918, 0.23709268867969513, 2.2454593181610107, 2.5415594577789307, -2.9591867923736572, -0.7583349943161011, 
44, 148003706, 0.018193230032920837, 0.6323818564414978, 0.011693794280290604, 0.7743550539016724, 9.537697792053223, 0.2616899907588959, 2.211852550506592, 2.6646230220794678, -3.1507043838500977, -0.5490923523902893, 
45, 148012039, 0.01783764362335205, 0.6323293447494507, 0.011629186570644379, 0.774407148361206, 9.579200744628906, 0.2567574083805084, 2.1767187118530273, 2.7066173553466797, -3.1143834590911865, -0.36244139075279236, 
46, 148020372, 0.017725041136145592, 0.6324969530105591, 0.01177454274147749, 0.7742705345153809, 9.593279838562012, 0.2944148778915405, 2.167759895324707, 2.5912766456604004, -2.9255552291870117, -0.07648410648107529, 
47, 148028705, 0.01738045923411846, 0.6324253678321838, 0.011691874824464321, 0.7743381261825562, 9.590497970581055, 0.31150487065315247, 2.1602609157562256, 2.588113307952881, -2.639444351196289, 0.13829122483730316, 
48, 148037038, 0.01724735088646412, 0.6325735449790955, 0.01180901937186718, 0.7742182612419128, 9.593205451965332, 0.31940391659736633, 2.161728858947754, 2.461169481277466, -2.5771126747131348, 0.38956692814826965, 
49, 148045371, 0.016911009326577187, 0.6325024366378784, 0.011742289178073406, 0.7742847204208374, 9.630613327026367, 0.29334887862205505, 2.138751745223999, 2.4978106021881104, -2.459914207458496, 0.3243914842605591, 
50, 148053704, 0.016766294836997986, 0.6326463222503662, 0.011884034611284733, 0.774168074131012, 9.631056785583496, 0.23922863602638245, 2.1506412029266357, 2.8207802772521973, -2.498924732208252, 0.29964810609817505, 
51, 148062037, 0.016491474583745003, 0.6325826048851013, 0.01182570680975914, 0.7742272019386292, 9.672086715698242, 0.21137836575508118, 2.1188108921051025, 2.9888477325439453, -2.3682150840759277, 0.17563678324222565, 
52, 148070370, 0.016347991302609444, 0.6327093243598938, 0.012003700248897076, 0.774124026298523, 9.705384254455566, 0.17968544363975525, 2.140390634536743, 3.189971446990967, -2.192706823348999, -0.03089076466858387, 
53, 148078703, 0.016057055443525314, 0.6326541900634766, 0.01200796291232109, 0.7741749286651611, 9.680570602416992, 0.18021507561206818, 2.109663248062134, 3.288175582885742, -2.3201241493225098, -0.09949848055839539, 
54, 148087036, 0.015918074175715446, 0.6327874064445496, 0.012200824916362762, 0.7740659713745117, 9.686713218688965, 0.20060686767101288, 2.140657663345337, 3.3114206790924072, -2.3117871284484863, -0.20775705575942993, 
55, 148095369, 0.01564004458487034, 0.6327518224716187, 0.012220625765621662, 0.7741003036499023, 9.6527738571167, 0.18806861340999603, 2.089884042739868, 3.3373169898986816, -2.458479881286621, -0.2631606161594391, 
56, 148103702, 0.015504169277846813, 0.6328964233398438, 0.012421623803675175, 0.7739815711975098, 9.686347961425781, 0.1786322146654129, 2.0996103286743164, 3.3749959468841553, -2.518289566040039, -0.3131084144115448, 
57, 148112035, 0.01519717089831829, 0.6328611969947815, 0.012473533861339092, 0.7740156650543213, 9.68340015411377, 0.18784038722515106, 2.112382650375366, 3.5361990928649902, -2.2776949405670166, -0.18652285635471344, 
58, 148120368, 0.015025446191430092, 0.6329935193061829, 0.012680661864578724, 0.773907482624054, 9.649182319641113, 0.19191065430641174, 2.138298511505127, 3.7488996982574463, -2.2886061668395996, 0.01734083704650402, 
59, 148128701, 0.01469298917800188, 0.6329756379127502, 0.01273894589394331, 0.7739275693893433, 9.661386489868164, 0.25292909145355225, 2.116485834121704, 4.007385730743408, -2.3954434394836426, 0.1717306524515152, 
60, 148137034, 0.01448745746165514, 0.6331282258033752, 0.01294663641601801, 0.773803174495697, 9.674976348876953, 0.2651357352733612, 2.1291213035583496, 4.053901195526123, -2.6419036388397217, 0.3704971373081207, 
61, 148145367, 0.014151225797832012, 0.6331352591514587, 0.012993982993066311, 0.7738029360771179, 9.67775821685791, 0.261406809091568, 2.0993878841400146, 4.217447757720947, -2.7042739391326904, 0.5142697691917419, 
62, 148153700, 0.013926565647125244, 0.6332922577857971, 0.013213413767516613, 0.7736747860908508, 9.687716484069824, 0.2562926113605499, 2.0901927947998047, 4.347042560577393, -2.7167739868164062, 0.4719679057598114, 
63, 148162033, 0.013607404194772243, 0.6333014965057373, 0.013260132633149624, 0.7736722230911255, 9.68123722076416, 0.25429901480674744, 2.060737133026123, 4.439088344573975, -2.613523244857788, 0.5950571298599243, 
64, 148170366, 0.01338942814618349, 0.6334402561187744, 0.013499768450856209, 0.7735582590103149, 9.729552268981934, 0.2417854219675064, 2.0519673824310303, 4.499075889587402, -2.3982093334198, 0.22285664081573486, 
65, 148178699, 0.013046934269368649, 0.6334238648414612, 0.013621130026876926, 0.7735752463340759, 9.7630615234375, 0.23339682817459106, 2.0493061542510986, 4.580657482147217, -2.033616781234741, 0.17608506977558136, 
66, 148187032, 0.012837041169404984, 0.6335280537605286, 0.013882666826248169, 0.7734887599945068, 9.752619743347168, 0.2290743887424469, 2.0410778522491455, 4.65045690536499, -1.7917159795761108, -0.05573657900094986, 
67, 148195365, 0.012518693692982197, 0.6334978938102722, 0.014014686457812786, 0.7735162973403931, 9.754982948303223, 0.23383960127830505, 2.0292325019836426, 4.749404430389404, -1.6222519874572754, -0.0011270263930782676, 
68, 148203698, 0.01229781098663807, 0.6335883736610413, 0.014288028702139854, 0.7734407782554626, 9.746282577514648, 0.22867392003536224, 2.0415005683898926, 4.866089344024658, -1.5479066371917725, -0.04173839092254639, 
69, 148212031, 0.011920507997274399, 0.6335423588752747, 0.014476330019533634, 0.7734808325767517, 9.73227310180664, 0.2694109380245209, 2.0619144439697266, 5.19678258895874, -1.1923171281814575, 0.10293080657720566, 
70, 148220364, 0.011653547175228596, 0.6336002945899963, 0.014762714505195618, 0.7734320163726807, 9.692381858825684, 0.28111693263053894, 2.0891897678375244, 5.395984172821045, -0.9593298435211182, 0.3332796096801758, 
71, 148228697, 0.011301001533865929, 0.6335452198982239, 0.014916165731847286, 0.7734794616699219, 9.639735221862793, 0.30622443556785583, 2.1326186656951904, 5.453693389892578, -0.8857659697532654, 0.42210984230041504, 
72, 148237030, 0.011020735837519169, 0.6336017847061157, 0.015197639353573322, 0.7734317183494568, 9.610658645629883, 0.29592177271842957, 2.116889238357544, 5.4584832191467285, -0.9365076422691345, 0.5148845911026001, 
73, 148245363, 0.010750924237072468, 0.6335510015487671, 0.015278235077857971, 0.7734754085540771, 9.594335556030273, 0.27392303943634033, 2.136408567428589, 5.378361701965332, -0.8903763890266418, 0.5993090271949768, 
74, 148253696, 0.010478734038770199, 0.6335864663124084, 0.01555330865085125, 0.773444652557373, 9.594482421875, 0.25852519273757935, 2.1394379138946533, 5.313878059387207, -0.5677779912948608, 0.48323819041252136, 
75, 148262029, 0.01016234140843153, 0.6335039734840393, 0.01569075509905815, 0.7735137343406677, 9.638528823852539, 0.24832965433597565, 2.140812635421753, 5.075306415557861, -0.33806946873664856, 0.4509386420249939, 
76, 148270362, 0.009919439442455769, 0.633515477180481, 0.01594649814069271, 0.7735021710395813, 9.594766616821289, 0.26403892040252686, 2.1360974311828613, 4.849671363830566, -0.15587542951107025, 0.33913251757621765, 
77, 148278695, 0.009680899791419506, 0.6334195137023926, 0.016046710312366486, 0.7735815644264221, 9.585779190063477, 0.2808612883090973, 2.1570796966552734, 4.55307149887085, -0.08842034637928009, 0.13943108916282654, 
78, 148287028, 0.009490011259913445, 0.6334269046783447, 0.016300249844789505, 0.7735726237297058, 9.567553520202637, 0.2924050986766815, 2.136223316192627, 4.37421989440918, -0.1029820367693901, -0.1963203102350235, 
79, 148295361, 0.009305285289883614, 0.6333237886428833, 0.016401350498199463, 0.7736572623252869, 9.565564155578613, 0.27564477920532227, 2.0891153812408447, 4.300911903381348, 0.042494017630815506, -0.30920225381851196, 
80, 148303694, 0.009126385673880577, 0.6333118081092834, 0.016668055206537247, 0.7736634612083435, 9.576689720153809, 0.30592501163482666, 2.0713815689086914, 4.406493663787842, 0.23111721873283386, -0.44114118814468384, 
81, 148312027, 0.008944415487349033, 0.6331920623779297, 0.01680399663746357, 0.7737606167793274, 9.580183982849121, 0.3039588928222656, 2.0204570293426514, 4.16746187210083, 0.35032594203948975, -0.6535472869873047, 
82, 148320360, 0.008797361515462399, 0.633165180683136, 0.017066897824406624, 0.7737786173820496, 9.585490226745605, 0.3040555417537689, 2.015437126159668, 4.087544918060303, 0.4829563796520233, -0.7482558488845825, 
83, 148328693, 0.008615037426352501, 0.633044421672821, 0.017223864793777466, 0.773875892162323, 9.598188400268555, 0.3107859790325165, 2.0340278148651123, 3.972562313079834, 0.4241972863674164, -0.8256235122680664, 
84, 148337026, 0.008482778444886208, 0.6330149173736572, 0.017465198412537575, 0.7738960981369019, 9.656659126281738, 0.3259810507297516, 2.0027806758880615, 3.728599786758423, 0.5225175619125366, -0.7195550799369812, 
85, 148345359, 0.008357071317732334, 0.6328864097595215, 0.017579054459929466, 0.7740001082420349, 9.65322208404541, 0.3877504765987396, 2.0299017429351807, 3.4289138317108154, 0.6474894285202026, -0.8879687190055847, 
86, 148353692, 0.008272550068795681, 0.6328549981117249, 0.01778247207403183, 0.7740220427513123, 9.656790733337402, 0.41935381293296814, 2.0256364345550537, 2.9087910652160645, 0.542343020439148, -0.8985218405723572, 
87, 148362025, 0.008228952996432781, 0.6327635049819946, 0.017832547426223755, 0.7740959525108337, 9.636899948120117, 0.4797282814979553, 2.0249502658843994, 2.649959087371826, 0.0788021981716156, -0.9795396327972412, 
88, 148370358, 0.00818808563053608, 0.6327715516090393, 0.017998436465859413, 0.7740859389305115, 9.6150541305542, 0.5171031951904297, 2.0633959770202637, 2.1441292762756348, -0.17338277399539948, -1.0308961868286133, 
89, 148378691, 0.00819541048258543, 0.6327188014984131, 0.018021194264292717, 0.7741286754608154, 9.589310646057129, 0.49316468834877014, 2.087784767150879, 1.9052765369415283, -0.5410494208335876, -1.1434962749481201, 
90, 148387024, 0.008182651363313198, 0.6327664256095886, 0.01817961223423481, 0.7740861773490906, 9.561738014221191, 0.45565083622932434, 2.0592892169952393, 1.833799958229065, -0.8863294124603271, -1.259887456893921, 
91, 148395357, 0.008218428120017052, 0.632762610912323, 0.01819833368062973, 0.774088442325592, 9.567225456237793, 0.41779136657714844, 2.028529644012451, 1.9128708839416504, -1.3654050827026367, -1.1926883459091187, 
92, 148403690, 0.008203849196434021, 0.6328510642051697, 0.01834299974143505, 0.7740128636360168, 9.556482315063477, 0.39020439982414246, 2.091966390609741, 1.7171013355255127, -1.6106358766555786, -1.1162042617797852, 
93, 148412023, 0.008227305486798286, 0.6328766942024231, 0.018357425928115845, 0.7739913463592529, 9.571399688720703, 0.346921443939209, 2.100740432739258, 1.2261790037155151, -1.860823154449463, -1.0705469846725464, 
94, 148420356, 0.00823772232979536, 0.6329888701438904, 0.01847883313894272, 0.7738965749740601, 9.568153381347656, 0.3446890413761139, 2.0525283813476562, 1.261744499206543, -2.040557861328125, -1.1760520935058594, 
95, 148428689, 0.008304258808493614, 0.633029580116272, 0.018476076424121857, 0.7738626003265381, 9.594287872314453, 0.32292109727859497, 2.091080904006958, 1.2321089506149292, -2.1002392768859863, -1.207352638244629, 
96, 148437022, 0.008315789513289928, 0.6331430673599243, 0.018611663952469826, 0.7737663984298706, 9.651765823364258, 0.35765066742897034, 2.086477041244507, 1.4042747020721436, -2.067171096801758, -1.3132673501968384, 
97, 148445355, 0.008347194641828537, 0.633185088634491, 0.018672656267881393, 0.7737302184104919, 9.665478706359863, 0.3942849040031433, 2.093726634979248, 1.3629591464996338, -2.1166067123413086, -1.526839017868042, 
98, 148453688, 0.008390774019062519, 0.6333202123641968, 0.01881672628223896, 0.7736157178878784, 9.719283103942871, 0.45179104804992676, 2.060389518737793, 1.2242708206176758, -2.4656260013580322, -1.7246575355529785, 
99, 148462021, 0.008490320295095444, 0.6333678960800171, 0.01883944869041443, 0.7735750079154968, 9.771198272705078, 0.4821279048919678, 2.0185136795043945, 0.9213951826095581, -2.1903114318847656, -1.7573028802871704, 
100, 148470354, 0.008561812341213226, 0.6334821581840515, 0.018961282446980476, 0.7734777331352234, 9.804872512817383, 0.5503180623054504, 2.060621738433838, 0.7394573092460632, -2.1049137115478516, -1.83132803440094, 
101, 148478687, 0.00867081992328167, 0.6335167288780212, 0.018972426652908325, 0.7734479904174805, 9.788543701171875, 0.5290848016738892, 1.976228952407837, 0.6564031839370728, -1.9094645977020264, -1.6917434930801392, 
102, 148487020, 0.008723157458007336, 0.6336039304733276, 0.019079487770795822, 0.7733733654022217, 9.805573463439941, 0.5353643298149109, 2.0079569816589355, 0.7408532500267029, -1.6179485321044922, -1.5056815147399902, 
103, 148495353, 0.008769053034484386, 0.6336101293563843, 0.019120080396533012, 0.7733665704727173, 9.721524238586426, 0.5111081600189209, 1.9816429615020752, 1.1845046281814575, -1.3415967226028442, -1.2477718591690063, 
104, 148503686, 0.008757045492529869, 0.6336866617202759, 0.019265571609139442, 0.7733004093170166, 9.639344215393066, 0.4524514377117157, 2.012590169906616, 1.7093404531478882, -1.410537600517273, -1.1569052934646606, 
105, 148512019, 0.00882804486900568, 0.6337013244628906, 0.019310681149363518, 0.7732865810394287, 9.56633186340332, 0.42526254057884216, 2.0106916427612305, 2.206089973449707, -1.3933888673782349, -1.2321984767913818, 
106, 148520352, 0.008775318041443825, 0.6337943077087402, 0.019539661705493927, 0.7732053399085999, 9.484243392944336, 0.36329221725463867, 2.030289649963379, 2.9579567909240723, -1.6966354846954346, -1.4507901668548584, 
107, 148528685, 0.00874662771821022, 0.6338512301445007, 0.019733624532818794, 0.7731537222862244, 9.426076889038086, 0.32797539234161377, 2.0183868408203125, 3.647479772567749, -2.13474178314209, -1.6231740713119507, 
108, 148537018, 0.008653967641294003, 0.6340062618255615, 0.020051654428243637, 0.7730194330215454, 9.393842697143555, 0.3001985549926758, 2.0516765117645264, 4.276181221008301, -2.7989442348480225, -1.791203498840332, 
109, 148545351, 0.008609647862613201, 0.6341456174850464, 0.02031797729432583, 0.7728989124298096, 9.381685256958008, 0.27703940868377686, 2.019277572631836, 4.899836540222168, -3.5692155361175537, -2.003929615020752, 
110, 148553684, 0.00847969576716423, 0.6343852281570435, 0.0207330584526062, 0.7726926803588867, 9.4375638961792, 0.2693631052970886, 1.991877794265747, 5.664601802825928, -4.303781032562256, -2.227695941925049, 
111, 148562017, 0.008401844650506973, 0.6345931887626648, 0.021084832027554512, 0.7725131511688232, 9.46430492401123, 0.2950531840324402, 1.9639286994934082, 6.170686721801758, -4.7904767990112305, -2.3868110179901123, 
112, 148570350, 0.00824639480561018, 0.6348747611045837, 0.02154303528368473, 0.7722707390785217, 9.498952865600586, 0.333911269903183, 2.0042362213134766, 6.362844467163086, -5.054559230804443, -2.3244659900665283, 
113, 148578683, 0.008179113268852234, 0.63510662317276, 0.02188032679259777, 0.7720713019371033, 9.524256706237793, 0.4385901987552643, 2.0075690746307373, 6.2990522384643555, -5.180619716644287, -2.317434787750244, 
114, 148587016, 0.008032741956412792, 0.635391891002655, 0.022306598722934723, 0.771825909614563, 9.576991081237793, 0.5046200156211853, 2.0107595920562744, 5.9473700523376465, -5.126523017883301, -2.1420037746429443, 
115, 148595349, 0.007934531196951866, 0.6356014609336853, 0.022630594670772552, 0.7716448903083801, 9.593018531799316, 0.6126651763916016, 2.0175769329071045, 5.475529670715332, -4.805832386016846, -2.050611734390259, 
116, 148603682, 0.007827145978808403, 0.635858416557312, 0.022978590801358223, 0.7714239358901978, 9.639883041381836, 0.7101894021034241, 2.0065410137176514, 4.767961502075195, -4.635395050048828, -1.8781765699386597, 
117, 148612015, 0.007823960855603218, 0.6360381245613098, 0.02316856011748314, 0.7712701559066772, 9.68166732788086, 0.7934225797653198, 2.038633346557617, 3.699310302734375, -4.262733459472656, -1.7358638048171997, 
118, 148620348, 0.007800012361258268, 0.6362523436546326, 0.023378854617476463, 0.7710873484611511, 9.671628952026367, 0.8295159935951233, 2.030799150466919, 2.5618460178375244, -3.892749071121216, -1.5681804418563843, 
119, 148628681, 0.007864760234951973, 0.6363879442214966, 0.023461315780878067, 0.7709722518920898, 9.705121040344238, 0.8286027908325195, 1.9919815063476562, 1.6093167066574097, -3.493717670440674, -1.4744704961776733, 
120, 148637014, 0.007914640009403229, 0.6365521550178528, 0.023565109819173813, 0.7708330750465393, 9.733192443847656, 0.8191492557525635, 1.9730076789855957, 0.7694260478019714, -3.017587661743164, -1.4327324628829956, 
121, 148645347, 0.00806792639195919, 0.6366376280784607, 0.023550033569335938, 0.7707613110542297, 9.761367797851562, 0.7864716053009033, 1.9627741575241089, 0.024743352085351944, -2.6038153171539307, -1.3928765058517456, 
122, 148653680, 0.008176582865417004, 0.6367632150650024, 0.023578213527798653, 0.7706555724143982, 9.767352104187012, 0.7346184849739075, 1.9597452878952026, -0.5594660639762878, -2.3423707485198975, -1.4034552574157715, 
123, 148662013, 0.008351355791091919, 0.6368125677108765, 0.023524314165115356, 0.7706146836280823, 9.769759178161621, 0.6849331259727478, 1.9540996551513672, -1.0657826662063599, -1.9617942571640015, -1.2720798254013062, 
124, 148670346, 0.008489418774843216, 0.636909008026123, 0.023485733196139336, 0.7705346345901489, 9.780767440795898, 0.6308742761611938, 1.9143965244293213, -1.534087896347046, -1.82875394821167, -1.1366829872131348, 
125, 148678679, 0.008686920627951622, 0.6369243264198303, 0.023354528471827507, 0.770523726940155, 9.790892601013184, 0.5231800675392151, 1.9349294900894165, -1.8204675912857056, -1.3179932832717896, -0.7170064449310303, 
126, 148687012, 0.008805529214441776, 0.6369835734367371, 0.023275215178728104, 0.7704758048057556, 9.797343254089355, 0.48365169763565063, 1.970365285873413, -1.808237075805664, -1.1531785726547241, -0.5809308886528015, 
127, 148695345, 0.008969474583864212, 0.6369833946228027, 0.023135794326663017, 0.7704782485961914, 9.75942611694336, 0.45879504084587097, 1.9838815927505493, -2.0347182750701904, -1.0169364213943481, -0.3438967168331146, 
128, 148703678, 0.009075832553207874, 0.6370421051979065, 0.02302299439907074, 0.7704318165779114, 9.736083030700684, 0.42398983240127563, 1.9885737895965576, -2.056105852127075, -1.136144995689392, -0.15816789865493774, 
129, 148712011, 0.009255003184080124, 0.637045681476593, 0.022847071290016174, 0.7704318761825562, 9.699694633483887, 0.4305882751941681, 1.9836424589157104, -2.1510066986083984, -1.0561518669128418, -0.11062787473201752, 
130, 148720344, 0.00935683399438858, 0.6371011734008789, 0.022727763280272484, 0.7703883647918701, 9.654163360595703, 0.44823554158210754, 1.9818638563156128, -2.0849218368530273, -1.0773347616195679, -0.05309830978512764, 
131, 148728677, 0.009518801234662533, 0.6371036767959595, 0.022547369822859764, 0.7703896164894104, 9.62585735321045, 0.4612303674221039, 2.027806043624878, -2.0182480812072754, -1.0218544006347656, 0.10389135032892227, 
132, 148737010, 0.00959944911301136, 0.6371514797210693, 0.022426573559641838, 0.7703525424003601, 9.630145072937012, 0.48004764318466187, 2.0491456985473633, -1.916047215461731, -0.9341254830360413, 0.18257825076580048, 
133, 148745343, 0.009719404391944408, 0.6371637582778931, 0.022261206060647964, 0.7703456282615662, 9.649072647094727, 0.48382607102394104, 2.0654945373535156, -1.6927680969238281, -1.197209358215332, 0.3753894567489624, 
134, 148753676, 0.00976688601076603, 0.6372305750846863, 0.02214212156832218, 0.7702931761741638, 9.654852867126465, 0.5248393416404724, 2.0632026195526123, -1.599711298942566, -1.261757254600525, 0.5224663615226746, 
135, 148762009, 0.009857029654085636, 0.6372467875480652, 0.021980786696076393, 0.7702833414077759, 9.61693000793457, 0.5496398210525513, 2.07161545753479, -1.4839224815368652, -1.276267647743225, 0.6417134404182434, 
136, 148770342, 0.009889529086649418, 0.6373329162597656, 0.021872127428650856, 0.7702147960662842, 9.597434043884277, 0.526881217956543, 2.078664541244507, -1.349319577217102, -1.6054105758666992, 0.5942245721817017, 
137, 148778675, 0.009970399551093578, 0.6373751759529114, 0.021719491109251976, 0.7701831459999084, 9.5972318649292, 0.5192655324935913, 2.029134511947632, -1.1579042673110962, -1.7509762048721313, 0.7148675918579102, 
138, 148787008, 0.009977593086659908, 0.6374714374542236, 0.02162693813443184, 0.7701060175895691, 9.580005645751953, 0.5195052623748779, 2.0561952590942383, -0.9511333107948303, -1.7783706188201904, 0.7221677303314209, 
139, 148795341, 0.010029989294707775, 0.6375147104263306, 0.021508168429136276, 0.7700726985931396, 9.591734886169434, 0.5297226905822754, 2.0619659423828125, -0.7266502976417542, -1.7902302742004395, 0.6993070840835571, 
140, 148803674, 0.01002673152834177, 0.6376097798347473, 0.021427322179079056, 0.7699962854385376, 9.59404468536377, 0.5318406224250793, 2.0538182258605957, -0.7346290349960327, -1.7565600872039795, 0.7295958399772644, 
141, 148812007, 0.010093416087329388, 0.6376441717147827, 0.02129252441227436, 0.769970715045929, 9.624970436096191, 0.5499879121780396, 2.005666732788086, -0.5784590840339661, -1.6334068775177002, 0.7870997786521912, 
142, 148820340, 0.010072056204080582, 0.6377223134040833, 0.021229874342679977, 0.76990807056427, 9.61093807220459, 0.5780628323554993, 2.0072836875915527, -0.38700541853904724, -1.451942801475525, 0.7590393424034119, 
143, 148828673, 0.010077416896820068, 0.6377464532852173, 0.021160412579774857, 0.769889771938324, 9.612069129943848, 0.6237493753433228, 1.9716739654541016, -0.14123687148094177, -1.4819625616073608, 0.7314784526824951, 
144, 148837006, 0.010037772357463837, 0.6378254890441895, 0.021111244335770607, 0.7698261737823486, 9.597105026245117, 0.6378577947616577, 1.9981573820114136, -0.082887664437294, -1.4642376899719238, 0.8354210257530212, 
145, 148845339, 0.01008825283497572, 0.6378551125526428, 0.021010013297200203, 0.7698037028312683, 9.596758842468262, 0.6085047125816345, 1.9481251239776611, -0.016585219651460648, -1.5541822910308838, 0.7258306741714478, 
146, 148853672, 0.01006236020475626, 0.6379494071006775, 0.02098059095442295, 0.7697266936302185, 9.607242584228516, 0.5827958583831787, 1.9893816709518433, 0.012896766886115074, -1.7485300302505493, 0.5194182395935059, 
147, 148862005, 0.010128693655133247, 0.6379842758178711, 0.020902050659060478, 0.7696991562843323, 9.627171516418457, 0.5154440999031067, 1.9405996799468994, 0.06409962475299835, -1.65859854221344, 0.3901432454586029, 
148, 148870338, 0.01010148599743843, 0.6380802989006042, 0.02088414877653122, 0.7696204781532288, 9.662824630737305, 0.4904198944568634, 1.9574981927871704, 0.14990729093551636, -1.7803173065185547, 0.4337386190891266, 
149, 148878671, 0.010100283659994602, 0.638116180896759, 0.020863519981503487, 0.7695910930633545, 9.672733306884766, 0.5088681578636169, 1.9665035009384155, 0.24981561303138733, -1.7017585039138794, 0.4240436553955078, 
150, 148887004, 0.0100709842517972, 0.63819420337677, 0.020864948630332947, 0.7695267796516418, 9.685306549072266, 0.5116643309593201, 1.9511882066726685, 0.3696005642414093, -1.4628801345825195, 0.2833574712276459, 
151, 148895337, 0.01008197944611311, 0.6382085680961609, 0.02084779366850853, 0.7695151567459106, 9.691365242004395, 0.5393171906471252, 1.956588625907898, 0.3861473798751831, -1.3096815347671509, 0.3084081709384918, 
152, 148903670, 0.010053238831460476, 0.638270378112793, 0.0208562221378088, 0.7694640159606934, 9.691193580627441, 0.5318639278411865, 1.9257813692092896, 0.43265005946159363, -1.1778193712234497, 0.2124444544315338, 
153, 148912003, 0.010116469115018845, 0.6382728219032288, 0.020807480439543724, 0.769462525844574, 9.709977149963379, 0.539424479007721, 1.9306167364120483, 0.26814261078834534, -1.0774884223937988, 0.16860567033290863, 
154, 148920336, 0.010094757191836834, 0.6383141875267029, 0.020807472988963127, 0.769428551197052, 9.699591636657715, 0.5308268070220947, 1.942604899406433, 0.27327826619148254, -0.8155956268310547, 0.21042093634605408, 
155, 148928669, 0.010112635791301727, 0.6382966637611389, 0.02078794501721859, 0.7694433331489563, 9.7031888961792, 0.5168858766555786, 1.9256311655044556, 0.24260525405406952, -0.7304412126541138, 0.26406997442245483, 
156, 148937002, 0.010088006965816021, 0.6383278369903564, 0.020784778520464897, 0.7694178819656372, 9.682533264160156, 0.47956979274749756, 1.886734127998352, 0.2639418840408325, -0.6351561546325684, 0.2693720757961273, 
157, 148945335, 0.010108890011906624, 0.638302206993103, 0.02075468748807907, 0.769439697265625, 9.683011054992676, 0.4616945683956146, 1.8996448516845703, 0.388055682182312, -0.5628856420516968, 0.38746654987335205, 
158, 148953668, 0.01005791686475277, 0.6383341550827026, 0.02075476013123989, 0.7694138884544373, 9.689427375793457, 0.4118320941925049, 1.9326695203781128, 0.5321613550186157, -0.6394208669662476, 0.5193285942077637, 
159, 148962001, 0.010048703290522099, 0.6383004188537598, 0.02073371596634388, 0.7694424986839294, 9.693017959594727, 0.3792369067668915, 1.9169689416885376, 0.8744314908981323, -0.38954126834869385, 0.6481553912162781, 
160, 148970334, 0.009940785355865955, 0.6383014917373657, 0.020757857710123062, 0.7694423794746399, 9.70763111114502, 0.3670910596847534, 1.9075487852096558, 1.2771129608154297, -0.07038791477680206, 0.9072433710098267, 
161, 148978667, 0.009855450130999088, 0.6382420659065247, 0.020775169134140015, 0.7694922685623169, 9.68455696105957, 0.42054983973503113, 1.9396028518676758, 1.8692626953125, 0.10059989988803864, 1.0849037170410156, 
162, 148987000, 0.009690872393548489, 0.6382409930229187, 0.020842647179961205, 0.7694934606552124, 9.652417182922363, 0.4420161843299866, 1.9774562120437622, 2.2322165966033936, -0.017827507108449936, 1.1255279779434204, 
163, 148995333, 0.009616564027965069, 0.6382027864456177, 0.02086086943745613, 0.7695255875587463, 9.628155708312988, 0.42683351039886475, 1.9509952068328857, 2.5533807277679443, -0.238481342792511, 1.0908591747283936, 
164, 149003666, 0.009420332498848438, 0.6382172107696533, 0.02096453309059143, 0.7695133090019226, 9.616620063781738, 0.42568883299827576, 1.9157336950302124, 2.9017088413238525, -0.2876094579696655, 1.1460576057434082, 
165, 149011999, 0.009305896237492561, 0.6381816267967224, 0.021025866270065308, 0.7695424556732178, 9.615069389343262, 0.4436938762664795, 1.9214504957199097, 3.0173568725585938, -0.29640793800354004, 1.068062424659729, 
166, 149020332, 0.009107975289225578, 0.6381980180740356, 0.021130921319127083, 0.769528329372406, 9.626411437988281, 0.4489760100841522, 1.9294018745422363, 2.9362494945526123, -0.3267095983028412, 1.1550612449645996, 
167, 149028665, 0.008978180587291718, 0.6381621956825256, 0.02119268663227558, 0.7695579528808594, 9.626802444458008, 0.4433041214942932, 1.940055012702942, 2.870805263519287, -0.29351353645324707, 1.1678683757781982, 
168, 149036998, 0.00876760482788086, 0.6381857395172119, 0.021283850073814392, 0.769538402557373, 9.641773223876953, 0.48298880457878113, 1.9439791440963745, 2.9045774936676025, -0.4502854645252228, 1.413291096687317, 
169, 149045331, 0.008599143475294113, 0.6381577253341675, 0.021333374083042145, 0.7695620059967041, 9.65247917175293, 0.4674975574016571, 1.9199795722961426, 2.9711618423461914, -0.42148229479789734, 1.6626842021942139, 
170, 149053664, 0.008369766175746918, 0.6381795406341553, 0.021415958181023598, 0.7695441842079163, 9.653855323791504, 0.5078595280647278, 1.8836069107055664, 2.9796652793884277, -0.41582146286964417, 1.6886568069458008, 
171, 149061997, 0.008189463056623936, 0.6381475925445557, 0.021458646282553673, 0.7695714235305786, 9.667586326599121, 0.5173721313476562, 1.914947748184204, 3.033967971801758, -0.34015709161758423, 1.8580182790756226, 
172, 149070330, 0.007949313148856163, 0.6381580829620361, 0.021522272378206253, 0.7695634961128235, 9.68940258026123, 0.532590389251709, 1.8944625854492188, 2.8695883750915527, -0.2088712602853775, 1.9656106233596802, 
173, 149078663, 0.007813900709152222, 0.6381063461303711, 0.02151554264128208, 0.7696080803871155, 9.699867248535156, 0.5664554238319397, 1.9430255889892578, 2.5394210815429688, 0.028944088146090508, 1.9043670892715454, 
174, 149086996, 0.007615691050887108, 0.6381045579910278, 0.021542023867368698, 0.7696108222007751, 9.69007396697998, 0.5408033728599548, 1.9097251892089844, 2.1074492931365967, -0.005250918213278055, 1.8476699590682983, 
175, 149095329, 0.007532013580203056, 0.6380487084388733, 0.021510865539312363, 0.7696587443351746, 9.716110229492188, 0.5284537076950073, 1.922542691230774, 1.8456978797912598, 0.09196791052818298, 1.5915790796279907, 
176, 149103662, 0.007371535524725914, 0.6380350589752197, 0.021528666839003563, 0.7696710824966431, 9.710002899169922, 0.5027721524238586, 1.8930426836013794, 1.6826887130737305, 0.19007042050361633, 1.522958517074585, 
177, 149111995, 0.007330475840717554, 0.6379724144935608, 0.021490106359124184, 0.769724428653717, 9.672624588012695, 0.5131345391273499, 1.9409960508346558, 1.3711684942245483, 0.20216035842895508, 1.2174830436706543, 
178, 149120328, 0.007215351331979036, 0.6379656791687012, 0.021497640758752823, 0.7697308659553528, 9.659928321838379, 0.5096400380134583, 1.9470181465148926, 1.181494951248169, 0.04893599450588226, 1.1357736587524414, 
179, 149128661, 0.007212599273771048, 0.6379246115684509, 0.021438730880618095, 0.7697666883468628, 9.656596183776855, 0.5091392397880554, 1.8717707395553589, 0.9092925190925598, -0.1856263428926468, 1.019715428352356, 
180, 149136994, 0.00712481839582324, 0.6379404067993164, 0.02142571099102497, 0.7697547674179077, 9.640974044799805, 0.49388235807418823, 1.9093798398971558, 0.7336685061454773, -0.3637349307537079, 1.0321255922317505, 
181, 149145327, 0.007139767054468393, 0.6379090547561646, 0.021343540400266647, 0.7697827816009521, 9.593329429626465, 0.5265997052192688, 1.8929996490478516, 0.38098615407943726, -0.3634532392024994, 1.0260294675827026, 
182, 149153660, 0.007069068495184183, 0.6379126906394958, 0.02128162421286106, 0.7697821259498596, 9.576327323913574, 0.5685938596725464, 1.8515419960021973, 0.06579015403985977, -0.14822955429553986, 1.2784192562103271, 
183, 149161993, 0.007082960568368435, 0.6378647685050964, 0.021147960796952248, 0.7698255181312561, 9.59589672088623, 0.5900165438652039, 1.8127306699752808, -0.14820395410060883, -0.05394357815384865, 1.4991371631622314, 
184, 149170326, 0.007006695494055748, 0.6378588080406189, 0.021030785515904427, 0.7698343396186829, 9.62108039855957, 0.6088824272155762, 1.8602927923202515, -0.4726594388484955, 0.030698658898472786, 1.8230291604995728, 
185, 149178659, 0.007022462319582701, 0.6378177404403687, 0.020829590037465096, 0.7698737382888794, 9.63730239868164, 0.6143491268157959, 1.9254660606384277, -0.8439633846282959, -0.14833202958106995, 2.1033127307891846, 
186, 149186992, 0.006948119029402733, 0.6378254294395447, 0.02065660059452057, 0.769872784614563, 9.654936790466309, 0.5688836574554443, 1.8927603960037231, -1.0733259916305542, -0.20905058085918427, 2.294625759124756, 
187, 149195325, 0.006979232653975487, 0.6377996206283569, 0.02042764239013195, 0.769899845123291, 9.688434600830078, 0.5371530652046204, 1.9118572473526, -1.1859647035598755, -0.4157702922821045, 2.2334718704223633, 
188, 149203658, 0.006930912379175425, 0.6378175616264343, 0.020265795290470123, 0.7698897123336792, 9.694189071655273, 0.47743064165115356, 1.923893928527832, -1.177742600440979, -0.407471239566803, 1.9247435331344604, 
189, 149211991, 0.00699680857360363, 0.6377830505371094, 0.020059533417224884, 0.7699231505393982, 9.726622581481934, 0.4124000072479248, 1.9908868074417114, -1.3606408834457397, -0.2758268713951111, 1.6618002653121948, 
190, 149220324, 0.007023392245173454, 0.6377789378166199, 0.01988866925239563, 0.7699307799339294, 9.66392707824707, 0.3799600303173065, 1.9738545417785645, -1.9323890209197998, -0.04075224697589874, 1.209580898284912, 
191, 149228657, 0.007173411548137665, 0.6377118825912476, 0.019670680165290833, 0.7699904441833496, 9.676484107971191, 0.41867539286613464, 1.9492908716201782, -2.3339436054229736, 0.26734858751296997, 0.850021243095398, 
192, 149236990, 0.007273026742041111, 0.6376744508743286, 0.01945420727133751, 0.7700260281562805, 9.648358345031738, 0.44548389315605164, 2.0002970695495605, -3.064973831176758, 0.5295615196228027, 0.8300933241844177, 
193, 149245323, 0.007521658204495907, 0.6375749707221985, 0.019136352464556694, 0.7701140642166138, 9.62298583984375, 0.5041875243186951, 2.0019214153289795, -4.02977180480957, 0.8289791345596313, 0.7148164510726929, 
194, 149253656, 0.007718366105109453, 0.6375096440315247, 0.01881544478237629, 0.7701740860939026, 9.610122680664062, 0.5491544604301453, 1.997341275215149, -5.028061389923096, 1.0007737874984741, 0.7136638164520264, 
195, 149261989, 0.008058285340666771, 0.637382447719574, 0.01840466633439064, 0.7702856659889221, 9.585177421569824, 0.6053956151008606, 2.0275614261627197, -6.051004886627197, 1.2735910415649414, 0.5228121876716614, 
196, 149270322, 0.008367137052118778, 0.6372854113578796, 0.01798180676996708, 0.7703726291656494, 9.577254295349121, 0.6418700218200684, 2.005866527557373, -7.097653865814209, 1.5293877124786377, 0.4163210093975067, 
197, 149278655, 0.00880538672208786, 0.6371369361877441, 0.017472518607974052, 0.7705023288726807, 9.537210464477539, 0.6520138382911682, 2.038238048553467, -8.128138542175293, 1.6022855043411255, 0.334739625453949, 
198, 149286988, 0.009231718257069588, 0.6370271444320679, 0.016954926773905754, 0.7705996632575989, 9.557059288024902, 0.6999645233154297, 2.03255033493042, -9.131553649902344, 1.7138869762420654, 0.0007556200725957751, 
199, 149295321, 0.009812324307858944, 0.6368783116340637, 0.016326405107975006, 0.770729124546051, 9.60068130493164, 0.7423020005226135, 2.028780460357666, -10.564425468444824, 1.5421308279037476, -0.07828991860151291, 
200, 149303654, 0.010381883010268211, 0.6367839574813843, 0.01566750556230545, 0.7708133459091187, 9.648160934448242, 0.7920650243759155, 2.0300886631011963, -11.876976013183594, 1.3799927234649658, -0.27551954984664917, 
201, 149311987, 0.011096253991127014, 0.636644721031189, 0.01491174940019846, 0.7709333300590515, 9.692368507385254, 0.8371808528900146, 2.0520424842834473, -13.197915077209473, 1.2898688316345215, -0.3567294776439667, 
202, 149320320, 0.011791542172431946, 0.6365525722503662, 0.014126279391348362, 0.7710138559341431, 9.75573444366455, 0.8380047082901001, 2.039402961730957, -14.315771102905273, 1.2763445377349854, -0.4994775950908661, 
203, 149328653, 0.012637843377888203, 0.6364052891731262, 0.01325929630547762, 0.7711374759674072, 9.795022010803223, 0.8383278846740723, 2.012742280960083, -15.3977689743042, 1.3566709756851196, -0.6941714882850647, 
204, 149336986, 0.013441656716167927, 0.6363004446029663, 0.012363165616989136, 0.7712252736091614, 9.824851036071777, 0.8018614649772644, 1.9845621585845947, -16.439937591552734, 1.4302865266799927, -0.6824146509170532, 
205, 149345319, 0.014371437020599842, 0.6361404061317444, 0.011412238702178001, 0.7713552117347717, 9.791473388671875, 0.7713463306427002, 2.0032405853271484, -17.449522018432617, 1.494552493095398, -0.864378035068512, 
206, 149353652, 0.015282541513442993, 0.6360390186309814, 0.010411902330815792, 0.7714354395866394, 9.742311477661133, 0.7276321053504944, 2.061044454574585, -18.479780197143555, 1.2879736423492432, -0.9093056321144104, 
207, 149361985, 0.01632303185760975, 0.6359046101570129, 0.009347566403448582, 0.7715386152267456, 9.645729064941406, 0.6929773688316345, 2.0253942012786865, -19.456274032592773, 0.9548094272613525, -0.9641457796096802, 
208, 149370318, 0.01731441728770733, 0.6358475685119629, 0.008246839977800846, 0.7715765833854675, 9.556151390075684, 0.6424968242645264, 2.0664193630218506, -20.23036003112793, 0.4103274345397949, -0.8832559585571289, 
209, 149378651, 0.018414270132780075, 0.6357629895210266, 0.007088562939316034, 0.7716322541236877, 9.522890090942383, 0.5846546292304993, 2.0745255947113037, -21.121837615966797, -0.03509151563048363, -0.7692213654518127, 
210, 149386984, 0.019479384645819664, 0.6357429027557373, 0.005868377164006233, 0.7716329097747803, 9.497652053833008, 0.5543587803840637, 2.1047418117523193, -22.127479553222656, -0.34889161586761475, -0.6256279349327087, 
211, 149395317, 0.02062753587961197, 0.6356843113899231, 0.004619155544787645, 0.7716596722602844, 9.501812934875488, 0.510581910610199, 2.1378707885742188, -22.90561294555664, -0.6233738660812378, -0.5425096750259399, 
212, 149403650, 0.021773170679807663, 0.6356848478317261, 0.003331765066832304, 0.7716343402862549, 9.512336730957031, 0.512652575969696, 2.101576328277588, -23.535266876220703, -0.8215256333351135, -0.8982146978378296, 
213, 149411983, 0.02299635298550129, 0.635625958442688, 0.0020620417781174183, 0.7716518640518188, 9.550426483154297, 0.47699815034866333, 2.0819263458251953, -24.113122940063477, -0.749882698059082, -1.2114259004592896, 
214, 149420316, 0.024228408932685852, 0.6356196999549866, 0.000763414369430393, 0.7716217041015625, 9.578145980834961, 0.44064781069755554, 2.0952725410461426, -24.41111946105957, -0.8013160824775696, -1.7179731130599976, 
215, 149428649, 0.02552802488207817, 0.6355542540550232, -0.00047691725194454193, 0.7716339826583862, 9.614420890808105, 0.38807329535484314, 2.0809247493743896, -24.609712600708008, -0.7426851987838745, -2.2983412742614746, 
216, 149436982, 0.026830628514289856, 0.6355397701263428, -0.0017433608882129192, 0.7716000080108643, 9.609854698181152, 0.34423184394836426, 2.132930040359497, -24.690879821777344, -0.7417116761207581, -2.7483317852020264, 
217, 149445315, 0.028131436556577682, 0.6354726552963257, -0.0028966437093913555, 0.7716055512428284, 9.597373962402344, 0.298779159784317, 2.15179705619812, -24.520137786865234, -0.7962445020675659, -3.2366933822631836, 
218, 149453648, 0.0294599961489439, 0.6354678869247437, -0.00411533797159791, 0.7715543508529663, 9.578755378723145, 0.2756907343864441, 2.131828546524048, -24.407638549804688, -0.9790278077125549, -3.449009895324707, 
219, 149461981, 0.030796756967902184, 0.6354174613952637, -0.005284917075186968, 0.7715364694595337, 9.584490776062012, 0.30033376812934875, 2.1312899589538574, -24.748918533325195, -1.1987468004226685, -3.450725555419922, 
220, 149470314, 0.03212198242545128, 0.6354216933250427, -0.006548093631863594, 0.771469235420227, 9.620441436767578, 0.3505658209323883, 2.0808732509613037, -24.8531436920166, -1.2395758628845215, -3.0317277908325195, 
221, 149478647, 0.03341365233063698, 0.6353601813316345, -0.0077682859264314175, 0.7714534997940063, 9.655126571655273, 0.3727159798145294, 2.0636026859283447, -25.07668113708496, -1.113989233970642, -2.5829918384552, 
222, 149486980, 0.034695956856012344, 0.635349452495575, -0.009082854725420475, 0.7713913917541504, 9.705598831176758, 0.36919984221458435, 2.0129518508911133, -25.034648895263672, -1.0697790384292603, -2.124061346054077, 
223, 149495313, 0.035865526646375656, 0.6352642774581909, -0.010297189466655254, 0.771392822265625, 9.735949516296387, 0.3268345594406128, 1.9659099578857422, -24.65453338623047, -0.7493448853492737, -1.4711799621582031, 
224, 149503646, 0.037053052335977554, 0.6352185606956482, -0.01162581704556942, 0.7713554501533508, 9.779914855957031, 0.25938570499420166, 1.9602915048599243, -24.372854232788086, -0.5038066506385803, -0.979796290397644, 
225, 149511979, 0.038116205483675, 0.6350945234298706, -0.012818370014429092, 0.7713870406150818, 9.779400825500488, 0.18656675517559052, 1.9316258430480957, -23.792102813720703, -0.08754950016736984, -0.5742970108985901, 
226, 149520312, 0.039206091314554214, 0.6350221633911133, -0.014107801951467991, 0.771369457244873, 9.752691268920898, 0.13011807203292847, 1.9679203033447266, -23.125568389892578, -0.04930742830038071, -0.2740212082862854, 
227, 149528645, 0.04021160304546356, 0.6349042057991028, -0.015273009426891804, 0.7713925838470459, 9.696414947509766, 0.10669457912445068, 1.990768313407898, -22.661001205444336, -0.19881778955459595, -0.16623647511005402, 
228, 149536978, 0.0412500724196434, 0.6348627209663391, -0.016517139971256256, 0.7713462710380554, 9.620879173278809, 0.07265027612447739, 2.0515835285186768, -22.19405174255371, -0.6175594329833984, -0.14689768850803375, 
229, 149545311, 0.042240872979164124, 0.6347880959510803, -0.0176378283649683, 0.7713292837142944, 9.607074737548828, 0.058004043996334076, 2.0799736976623535, -21.95182228088379, -0.9861997365951538, -0.44963252544403076, 
230, 149553644, 0.04329534247517586, 0.634778618812561, -0.018830198794603348, 0.7712504863739014, 9.578994750976562, 0.04315744340419769, 2.1209871768951416, -21.782224655151367, -1.2091972827911377, -0.795271098613739, 
231, 149561977, 0.04428033530712128, 0.6347348093986511, -0.019881149753928185, 0.7712040543556213, 9.543403625488281, 0.058452945202589035, 2.15020751953125, -21.693374633789062, -1.5540162324905396, -1.1709040403366089, 
232, 149570310, 0.04537491127848625, 0.6347670555114746, -0.02103726752102375, 0.7710833549499512, 9.491364479064941, 0.06332655251026154, 2.1733510494232178, -21.737579345703125, -1.9895094633102417, -1.5740466117858887, 
233, 149578643, 0.04642442613840103, 0.6347631216049194, -0.02208240143954754, 0.7709947824478149, 9.466012954711914, 0.09622091054916382, 2.1565191745758057, -21.89131736755371, -2.3354811668395996, -1.926985263824463, 
234, 149586976, 0.04753828048706055, 0.6348358988761902, -0.023221759125590324, 0.7708335518836975, 9.353765487670898, 0.16630828380584717, 2.1011106967926025, -21.721750259399414, -2.7612156867980957, -1.9629733562469482, 
235, 149595309, 0.048562366515398026, 0.6348639130592346, -0.024216894060373306, 0.7707160711288452, 9.261553764343262, 0.2208269089460373, 2.0389597415924072, -21.650419235229492, -2.941924571990967, -2.2590997219085693, 
236, 149603642, 0.0496787466108799, 0.6349502205848694, -0.025309918448328972, 0.7705387473106384, 9.194995880126953, 0.30017992854118347, 2.06418514251709, -21.25288200378418, -3.0178446769714355, -2.4101722240448, 
237, 149611975, 0.05067303404211998, 0.634986400604248, -0.02623641863465309, 0.7704131007194519, 9.200759887695312, 0.36234933137893677, 2.0466716289520264, -20.67502212524414, -3.0847747325897217, -2.5681865215301514, 
238, 149620308, 0.05173150822520256, 0.635086178779602, -0.027239233255386353, 0.7702257633209229, 9.285651206970215, 0.4094392657279968, 2.0447988510131836, -19.79210090637207, -3.2092857360839844, -2.597437620162964, 
239, 149628641, 0.05265311896800995, 0.6351296305656433, -0.02804959937930107, 0.7700983285903931, 9.378437995910645, 0.35404738783836365, 2.1257009506225586, -18.75556755065918, -3.1404600143432617, -2.7995595932006836, 
240, 149636974, 0.053642258048057556, 0.635261595249176, -0.028917210176587105, 0.7698890566825867, 9.50692081451416, 0.24067826569080353, 2.1493513584136963, -17.7466983795166, -3.6739273071289062, -3.0734782218933105, 
241, 149645307, 0.05450776219367981, 0.6353551149368286, -0.029604947194457054, 0.7697247266769409, 9.63660717010498, 0.07997940480709076, 2.1993134021759033, -16.924711227416992, -3.9463090896606445, -3.3037757873535156, 
242, 149653640, 0.0554501973092556, 0.635508120059967, -0.03037777543067932, 0.7695009708404541, 9.700376510620117, -0.0656275674700737, 2.172043800354004, -16.331514358520508, -3.9767394065856934, -3.425751209259033, 
243, 149661973, 0.05625469237565994, 0.6355900764465332, -0.030960150063037872, 0.7693517804145813, 9.667577743530273, -0.09149455279111862, 2.189236640930176, -15.605809211730957, -3.6729543209075928, -3.6450090408325195, 
244, 149670306, 0.05714087188243866, 0.6357388496398926, -0.031652335077524185, 0.7691353559494019, 9.60500431060791, -0.03665120154619217, 2.1403048038482666, -14.992527961730957, -3.835374116897583, -3.526850700378418, 
245, 149678639, 0.05787614732980728, 0.635836660861969, -0.032167334109544754, 0.7689782977104187, 9.590472221374512, 0.11783681064844131, 2.1371030807495117, -14.2698974609375, -3.910602569580078, -3.5644521713256836, 
246, 149686972, 0.05870216339826584, 0.6359708905220032, -0.0328039824962616, 0.7687777280807495, 9.645051002502441, 0.25941604375839233, 2.0544700622558594, -13.889934539794922, -3.5277209281921387, -3.358410596847534, 
247, 149695305, 0.059397339820861816, 0.636008620262146, -0.03329335153102875, 0.7686720490455627, 9.742904663085938, 0.35222670435905457, 2.011612892150879, -13.585509300231934, -2.8462026119232178, -3.311997890472412, 
248, 149703638, 0.06017100438475609, 0.6360601186752319, -0.03389035165309906, 0.7685431241989136, 9.853951454162598, 0.38756129145622253, 2.039940118789673, -13.053885459899902, -2.0236527919769287, -3.056905508041382, 
249, 149711971, 0.060774754732847214, 0.6360142827033997, -0.03432013839483261, 0.7685144543647766, 9.98991584777832, 0.34017273783683777, 2.088768720626831, -12.466270446777344, -1.2955681085586548, -2.8127505779266357, 
250, 149720304, 0.061477869749069214, 0.6360090970993042, -0.034874219447374344, 0.7684379816055298, 10.080991744995117, 0.2681722939014435, 2.1003715991973877, -12.012333869934082, -0.9679876565933228, -2.617288112640381, 
251, 149728637, 0.062025897204875946, 0.6359279155731201, -0.035262275487184525, 0.7684431672096252, 10.151590347290039, 0.1933031529188156, 2.1014649868011475, -11.57663631439209, -0.6235786080360413, -2.5386526584625244, 
252, 149736970, 0.06268010288476944, 0.6358838081359863, -0.035780392587184906, 0.7684025764465332, 10.154317855834961, 0.1375529170036316, 2.1085729598999023, -11.228385925292969, -0.23969802260398865, -2.3663201332092285, 
253, 149745303, 0.0631929561495781, 0.6357529163360596, -0.036151520907878876, 0.7684516906738281, 10.12649154663086, 0.15661972761154175, 2.0434203147888184, -11.132996559143066, 0.2777479588985443, -2.267141819000244, 
254, 149753636, 0.06382796168327332, 0.6356596946716309, -0.03666697070002556, 0.7684520483016968, 10.084927558898926, 0.22877664864063263, 2.0362393856048584, -11.062583923339844, 0.625691831111908, -2.1279540061950684, 
255, 149761969, 0.06432036310434341, 0.6355079412460327, -0.03704226016998291, 0.7685185074806213, 10.026954650878906, 0.3071235120296478, 2.0380008220672607, -11.022010803222656, 0.63642418384552, -2.013150930404663, 
256, 149770302, 0.06494016945362091, 0.6353998780250549, -0.03755273297429085, 0.7685309648513794, 10.001388549804688, 0.3794515132904053, 1.9575915336608887, -10.890532493591309, 0.8806302547454834, -1.9944525957107544, 
257, 149778635, 0.06541232764720917, 0.6352244019508362, -0.03788166865706444, 0.7686197757720947, 9.978858947753906, 0.4231526255607605, 1.9096189737319946, -10.308680534362793, 1.117434024810791, -2.1647872924804688, 
258, 149786968, 0.06599266827106476, 0.6351084113121033, -0.038310132920742035, 0.7686448097229004, 9.924788475036621, 0.4661939740180969, 2.0432448387145996, -9.688559532165527, 1.1219162940979004, -2.27874493598938, 
259, 149795301, 0.06642516702413559, 0.6349543333053589, -0.038557056337594986, 0.7687225341796875, 9.9232759475708, 0.4079587459564209, 2.044529676437378, -9.179810523986816, 0.8616757988929749, -2.487168312072754, 
260, 149803634, 0.06696517020463943, 0.6348491907119751, -0.038899462670087814, 0.7687453031539917, 9.8882417678833, 0.32048752903938293, 2.010206699371338, -8.424471855163574, 1.0404630899429321, -2.6133182048797607, 
261, 149811967, 0.06732414662837982, 0.6346832513809204, -0.03905846178531647, 0.7688427567481995, 9.812644958496094, 0.23054923117160797, 2.0302324295043945, -7.607147216796875, 1.2014743089675903, -2.4324305057525635, 
262, 149820300, 0.06777065992355347, 0.6345645785331726, -0.039338719099760056, 0.7688871622085571, 9.75214958190918, 0.12155326455831528, 2.0550451278686523, -6.960694313049316, 1.3750873804092407, -2.1415293216705322, 
263, 149828633, 0.06805019825696945, 0.6343786716461182, -0.039464596658945084, 0.7690094113349915, 9.655646324157715, 0.05459301173686981, 2.0598864555358887, -6.590593338012695, 1.6177566051483154, -1.8558281660079956, 
264, 149836966, 0.06842352449893951, 0.63422030210495, -0.03973044082522392, 0.7690932154655457, 9.592229843139648, 0.009635256603360176, 2.0168468952178955, -6.194111347198486, 2.110779285430908, -1.4347813129425049, 
265, 149845299, 0.06860771775245667, 0.6339857578277588, -0.03982173278927803, 0.7692655324935913, 9.512044906616211, 0.08466305583715439, 1.9682573080062866, -5.496584892272949, 2.5378201007843018, -1.11985445022583, 
266, 149853632, 0.06888660788536072, 0.6338015198707581, -0.04002033546566963, 0.7693820595741272, 9.500535011291504, 0.15450599789619446, 2.020599603652954, -4.672984600067139, 2.675112247467041, -0.9788993000984192, 
267, 149861965, 0.06899045407772064, 0.6335582137107849, -0.04003569856286049, 0.7695723176002502, 9.477556228637695, 0.16532649099826813, 2.024487018585205, -3.9196953773498535, 2.820523977279663, -0.9299759268760681, 
268, 149870298, 0.0691831037402153, 0.6333324909210205, -0.040141940116882324, 0.7697352766990662, 9.533778190612793, 0.12137378007173538, 2.0187935829162598, -2.965974807739258, 3.5541670322418213, -0.8052859306335449, 
269, 149878631, 0.06917314976453781, 0.6330080032348633, -0.0400342233479023, 0.7700086832046509, 9.522841453552246, 0.11059686541557312, 1.9918441772460938, -1.7609788179397583, 4.449077606201172, -0.7103083729743958, 
270, 149886964, 0.06924305111169815, 0.6327059864997864, -0.04000037908554077, 0.7702522873878479, 9.53854751586914, 0.04503074288368225, 1.9832825660705566, -0.4492736756801605, 5.126112461090088, -0.6091320514678955, 
271, 149895297, 0.06910554319620132, 0.6323362588882446, -0.03974646329879761, 0.7705813646316528, 9.495588302612305, 0.031825415790081024, 2.012291193008423, 1.0431525707244873, 5.486428737640381, -0.5444561839103699, 
272, 149903630, 0.06902867555618286, 0.6320326924324036, -0.03955478593707085, 0.7708470821380615, 9.46070384979248, 0.015750860795378685, 1.9886627197265625, 2.501960277557373, 5.402183532714844, -0.40598565340042114, 
273, 149911963, 0.06872817128896713, 0.6317213177680969, -0.03917503356933594, 0.7711485624313354, 9.417490005493164, 0.019622812047600746, 2.015333414077759, 3.7533695697784424, 4.656859874725342, -0.020107174292206764, 
274, 149920296, 0.06850381195545197, 0.6315299868583679, -0.03888861835002899, 0.7713397741317749, 9.386969566345215, 0.0458969883620739, 2.0392794609069824, 4.8460469245910645, 3.5700736045837402, 0.20241649448871613, 
275, 149928629, 0.0680854395031929, 0.6313187479972839, -0.03846089541912079, 0.7715710997581482, 9.447911262512207, 0.05779147148132324, 2.036288261413574, 5.5554327964782715, 2.977027177810669, 0.702662467956543, 
276, 149936962, 0.06774687767028809, 0.6311966180801392, -0.038157157599925995, 0.7717158794403076, 9.506144523620605, 0.07626383006572723, 1.9854282140731812, 6.052553653717041, 2.385364294052124, 1.1826732158660889, 
277, 149945295, 0.0671960785984993, 0.6310368180274963, -0.03771675005555153, 0.7719162702560425, 9.516993522644043, 0.06361743062734604, 2.0014700889587402, 6.6808977127075195, 2.09651255607605, 1.875640869140625, 
278, 149953628, 0.06672440469264984, 0.6309636235237122, -0.03740116208791733, 0.7720323801040649, 9.527970314025879, 0.04829175025224686, 2.0187089443206787, 7.358804702758789, 1.554438591003418, 2.4392826557159424, 
279, 149961961, 0.06606081873178482, 0.6308660507202148, -0.03694775328040123, 0.7721909880638123, 9.556607246398926, 0.059023745357990265, 2.0137879848480225, 8.12077522277832, 1.0454065799713135, 2.9237751960754395, 
280, 149970294, 0.06546679139137268, 0.6308671832084656, -0.03659835085272789, 0.7722572684288025, 9.5646333694458, 0.08931449800729752, 1.9903639554977417, 8.813129425048828, 0.29557549953460693, 3.361727714538574, 
281, 149978627, 0.06468527764081955, 0.6308748722076416, -0.036101773381233215, 0.7723403573036194, 9.568830490112305, 0.16895879805088043, 2.068601608276367, 9.572693824768066, -0.7420444488525391, 3.6361844539642334, 
282, 149986960, 0.06401137262582779, 0.6309789419174194, -0.03572014346718788, 0.7723292112350464, 9.52361011505127, 0.24974797666072845, 2.130030393600464, 9.892333030700684, -1.4831924438476562, 3.8101048469543457, 
283, 149995293, 0.06321623176336288, 0.6310869455337524, -0.03524833917617798, 0.7723280787467957, 9.464783668518066, 0.29281386733055115, 2.1973674297332764, 9.896405220031738, -2.5493080615997314, 3.946167469024658, 
284, 150003626, 0.06251371651887894, 0.631310760974884, -0.03490125760436058, 0.7722179889678955, 9.445676803588867, 0.32716089487075806, 2.207904815673828, 9.823637008666992, -3.6614787578582764, 4.268548488616943, 
285, 150011959, 0.061704471707344055, 0.6315168738365173, -0.03448684886097908, 0.7721333503723145, 9.443279266357422, 0.3374958336353302, 2.197812557220459, 9.670616149902344, -4.379726886749268, 4.525638103485107, 
286, 150020292, 0.06096615642309189, 0.631818950176239, -0.03418376296758652, 0.7719582915306091, 9.425041198730469, 0.3262327015399933, 2.1941750049591064, 9.696462631225586, -5.114625930786133, 4.93974494934082, 
287, 150028625, 0.06005941331386566, 0.6320806741714478, -0.03378242999315262, 0.7718327641487122, 9.42054557800293, 0.3452780246734619, 2.1577532291412354, 9.74802303314209, -5.413031101226807, 5.497161388397217, 
288, 150036958, 0.05926055461168289, 0.6324129700660706, -0.033549774438142776, 0.7716324925422668, 9.467818260192871, 0.39784175157546997, 2.14662504196167, 9.4810209274292, -5.74547815322876, 6.160288333892822, 
289, 150045291, 0.05830913409590721, 0.6326760649681091, -0.03326648846268654, 0.771501362323761, 9.569755554199219, 0.4155845642089844, 2.182248830795288, 9.251618385314941, -5.600834369659424, 7.087549209594727, 
290, 150053624, 0.057427287101745605, 0.6329560875892639, -0.03313855454325676, 0.7713434100151062, 9.751541137695312, 0.41722747683525085, 2.1835057735443115, 9.06204891204834, -4.947902679443359, 8.008919715881348, 
291, 150061957, 0.056391991674900055, 0.6331243515014648, -0.032971084117889404, 0.771289050579071, 9.778928756713867, 0.35534024238586426, 2.2280077934265137, 8.728986740112305, -4.070614337921143, 9.122831344604492, 
292, 150070290, 0.055425483733415604, 0.633303701877594, -0.032991670072078705, 0.7712109684944153, 9.81432819366455, 0.30108311772346497, 2.311203718185425, 8.173210144042969, -3.3422741889953613, 10.309488296508789, 
293, 150078623, 0.05434393137693405, 0.6333944797515869, -0.03300028666853905, 0.7712127566337585, 9.7627592086792, 0.24020756781101227, 2.371556520462036, 7.871371269226074, -2.914106607437134, 11.37855052947998, 
294, 150086956, 0.053286489099264145, 0.6335335373878479, -0.03311830759048462, 0.7711672186851501, 9.753357887268066, 0.21810545027256012, 2.3741588592529297, 7.910919189453125, -2.7496371269226074, 12.164982795715332, 
295, 150095289, 0.052137818187475204, 0.6335936784744263, -0.03318110480904579, 0.7711937427520752, 9.718804359436035, 0.2063176929950714, 2.3990697860717773, 7.429498195648193, -2.4815328121185303, 12.521634101867676, 
296, 150103622, 0.051126349717378616, 0.6336945295333862, -0.0333748385310173, 0.7711702585220337, 9.613800048828125, 0.18969258666038513, 2.398401975631714, 6.682178974151611, -2.1885063648223877, 12.372689247131348, 
297, 150111955, 0.05008552968502045, 0.6336937546730042, -0.03352297469973564, 0.7712329030036926, 9.481962203979492, 0.16337579488754272, 2.493969202041626, 5.464144229888916, -1.5694611072540283, 12.16413688659668, 
298, 150120288, 0.049258384853601456, 0.6337047219276428, -0.033834703266620636, 0.771263599395752, 9.236876487731934, 0.09195370227098465, 2.494241952896118, 3.7818009853363037, -0.7618442177772522, 11.525394439697266, 
299, 150128621, 0.048455607146024704, 0.6336626410484314, -0.034115687012672424, 0.771336555480957, 8.978326797485352, 0.1280687302350998, 2.581761121749878, 2.037625551223755, -1.0685491561889648, 10.847744941711426, 
300, 150136954, 0.047899164259433746, 0.6337276697158813, -0.034564729779958725, 0.7712979316711426, 8.87012004852295, 0.14736977219581604, 2.602177381515503, -0.03660274296998978, -1.9085681438446045, 9.779553413391113, 
301, 150145287, 0.047458745539188385, 0.6337634921073914, -0.03499537333846092, 0.77127605676651, 8.78537654876709, 0.23252180218696594, 2.5751302242279053, -2.072371006011963, -2.7181315422058105, 8.33652400970459, 
302, 150153620, 0.0472286231815815, 0.6339110732078552, -0.035531360656023026, 0.771144449710846, 8.714734077453613, 0.28372207283973694, 2.587908983230591, -3.798975706100464, -3.497265338897705, 6.975870609283447, 
303, 150161953, 0.04705407842993736, 0.634019136428833, -0.03600632771849632, 0.7710442543029785, 8.676556587219238, 0.40493959188461304, 2.542503595352173, -4.892190933227539, -4.152374744415283, 5.826406478881836, 
304, 150170286, 0.04703836888074875, 0.6342503428459167, -0.03654104098677635, 0.770829975605011, 8.719362258911133, 0.5688256025314331, 2.5950636863708496, -5.64568567276001, -5.0040998458862305, 4.59602689743042, 
305, 150178619, 0.04704495519399643, 0.6344701051712036, -0.03698452562093735, 0.770627498626709, 8.71726131439209, 0.6993575692176819, 2.672616958618164, -6.268956661224365, -6.199312210083008, 3.519076347351074, 
306, 150186952, 0.04721850901842117, 0.6348599195480347, -0.037521377205848694, 0.7702698707580566, 8.810547828674316, 0.8181567192077637, 2.6250758171081543, -7.293961524963379, -7.845025539398193, 2.434697389602661, 
307, 150195285, 0.04741208627820015, 0.6352502107620239, -0.03799363970756531, 0.7699129581451416, 8.899152755737305, 0.9549445509910583, 2.6287081241607666, -8.740550994873047, -9.370227813720703, 1.570831537246704, 
308, 150203618, 0.047822557389736176, 0.6357923746109009, -0.038629449903964996, 0.7694083452224731, 9.053203582763672, 1.0679701566696167, 2.5641255378723145, -10.391519546508789, -10.687131881713867, 0.6164963841438293, 
309, 150211951, 0.048377346247434616, 0.6362552046775818, -0.039288170635700226, 0.7689574360847473, 9.255398750305176, 1.1748930215835571, 2.4628822803497314, -11.994149208068848, -10.978621482849121, -0.25132691860198975, 
310, 150220284, 0.0490623377263546, 0.6367706060409546, -0.04002021253108978, 0.7684495449066162, 9.392897605895996, 1.1352750062942505, 2.41837477684021, -13.83735179901123, -10.354608535766602, -1.43483304977417, 
311, 150228617, 0.04993002116680145, 0.637121319770813, -0.040719594806432724, 0.7680660486221313, 9.403999328613281, 1.0634437799453735, 2.4039061069488525, -15.232173919677734, -9.130349159240723, -2.9687161445617676, 
312, 150236950, 0.05094027891755104, 0.637457013130188, -0.041428204625844955, 0.7676831483840942, 9.368824005126953, 1.0392000675201416, 2.385080337524414, -16.490909576416016, -7.170809745788574, -4.89039945602417, 
313, 150245283, 0.052032701671123505, 0.6375916004180908, -0.04194413125514984, 0.7674701809883118, 9.316285133361816, 0.9486112594604492, 2.3055989742279053, -17.47723960876465, -5.1534576416015625, -6.984235763549805, 
314, 150253616, 0.0533573254942894, 0.6377174854278564, -0.04254644736647606, 0.7672414183616638, 9.249899864196777, 0.7182441353797913, 2.219435691833496, -18.184654235839844, -3.3563883304595947, -8.91032600402832, 
315, 150261949, 0.05483391880989075, 0.6376129388809204, -0.04299706593155861, 0.767198920249939, 9.22463321685791, 0.5137081146240234, 2.3256373405456543, -18.133041381835938, -0.911380410194397, -10.845327377319336, 
316, 150270282, 0.056356433779001236, 0.6374825239181519, -0.04341215267777443, 0.7671736478805542, 9.122471809387207, 0.4466593265533447, 2.2475335597991943, -18.020954132080078, 1.380595088005066, -12.338586807250977, 
317, 150278615, 0.05785991996526718, 0.637202799320221, -0.04360613226890564, 0.7672830820083618, 9.096019744873047, 0.385245680809021, 2.2772772312164307, -18.078384399414062, 2.4260666370391846, -13.545096397399902, 
318, 150286948, 0.05949387326836586, 0.6369872093200684, -0.04390522837638855, 0.7673200368881226, 9.094682693481445, 0.2031441628932953, 2.307255268096924, -17.801799774169922, 2.974057674407959, -14.431144714355469, 
319, 150295281, 0.061036814004182816, 0.6366540789604187, -0.044005971401929855, 0.7674695253372192, 9.155684471130371, 0.23726248741149902, 2.273076295852661, -17.761943817138672, 3.382169008255005, -14.741460800170898, 
320, 150303614, 0.0626848116517067, 0.6364104151725769, -0.04429885372519493, 0.7675219774246216, 9.184714317321777, 0.22436383366584778, 2.222043514251709, -17.878103256225586, 3.411267042160034, -14.607498168945312, 
321, 150311947, 0.06420423090457916, 0.6360905170440674, -0.044438354671001434, 0.7676534652709961, 9.307557106018066, 0.0077816760167479515, 2.204397678375244, -17.774057388305664, 2.9862492084503174, -14.142701148986816, 
322, 150320280, 0.0657571405172348, 0.6359108686447144, -0.04479370638728142, 0.7676501274108887, 9.441739082336426, -0.07060904055833817, 2.2720680236816406, -17.689428329467773, 2.1234850883483887, -13.145051002502441, 
323, 150328613, 0.06711814552545547, 0.6356797218322754, -0.04503411054611206, 0.7677099704742432, 9.6359281539917, -0.1228693425655365, 2.182176113128662, -17.75917625427246, 1.1923558712005615, -11.79141616821289, 
324, 150336946, 0.06850756704807281, 0.6355745196342468, -0.045536838471889496, 0.7676448225975037, 9.782784461975098, 0.04388081282377243, 2.088519811630249, -17.79342269897461, 0.5535879135131836, -10.235069274902344, 
325, 150345279, 0.06970012933015823, 0.6354182958602905, -0.04592146724462509, 0.7676437497138977, 10.067143440246582, 0.28480619192123413, 1.97486412525177, -17.609689712524414, -0.3958425223827362, -8.870314598083496, 
326, 150353612, 0.0709519013762474, 0.6353811025619507, -0.04648599028587341, 0.767525851726532, 10.228236198425293, 0.2577122747898102, 1.9650778770446777, -17.219377517700195, -0.7775458693504333, -8.335539817810059, 
327, 150361945, 0.07205508649349213, 0.6352500319480896, -0.0468469113111496, 0.7675094604492188, 10.235671997070312, 0.07885821908712387, 1.7755452394485474, -16.679122924804688, -0.8273400068283081, -8.203959465026855, 
328, 150370278, 0.0732186809182167, 0.6352583765983582, -0.04732147604227066, 0.7673633098602295, 10.271307945251465, -0.11225937306880951, 1.7203316688537598, -15.48004150390625, -1.4808104038238525, -8.248246192932129, 
329, 150378611, 0.07420555502176285, 0.6352344751358032, -0.047544512897729874, 0.7672744989395142, 10.403057098388672, -0.31282249093055725, 1.6629527807235718, -14.253376007080078, -2.498131036758423, -8.364176750183105, 
330, 150386944, 0.07523554563522339, 0.635354220867157, -0.04786796495318413, 0.7670549154281616, 10.477432250976562, -0.4084341824054718, 1.6599210500717163, -12.658967971801758, -3.240431785583496, -8.305059432983398, 
331, 150395277, 0.0760820209980011, 0.6354570984840393, -0.047975361347198486, 0.7668795585632324, 10.504084587097168, -0.5521981716156006, 1.577799677848816, -11.764647483825684, -4.512691497802734, -8.135774612426758, 
332, 150403610, 0.07698435336351395, 0.6357194185256958, -0.048223827034235, 0.766556441783905, 10.630005836486816, -0.787348747253418, 1.532654047012329, -10.681289672851562, -5.662667274475098, -7.816670894622803, 
333, 150411943, 0.07769853621721268, 0.6359214186668396, -0.048286110162734985, 0.7663128972053528, 10.7525053024292, -0.787079930305481, 1.5450330972671509, -9.904975891113281, -6.122955799102783, -7.338812828063965, 
334, 150420276, 0.07848605513572693, 0.6361904740333557, -0.04848770052194595, 0.765996515750885, 10.767444610595703, -0.8076045513153076, 1.6447068452835083, -9.180322647094727, -5.708850383758545, -7.013486385345459, 
335, 150428609, 0.07908216118812561, 0.6364046931266785, -0.04852092266082764, 0.765755295753479, 10.891666412353516, -0.862278938293457, 1.6241559982299805, -8.63537883758545, -6.2045111656188965, -6.507911682128906, 
336, 150436942, 0.0797094777226448, 0.6367491483688354, -0.04873960092663765, 0.7653898596763611, 11.051466941833496, -0.823929488658905, 1.704237461090088, -7.917898654937744, -7.064688205718994, -5.278326034545898, 
337, 150445275, 0.08010515570640564, 0.637052595615387, -0.048877231776714325, 0.7650872468948364, 11.146175384521484, -0.6509246230125427, 1.7905489206314087, -7.731400489807129, -7.859317779541016, -3.7158312797546387, 
338, 150453608, 0.08053397387266159, 0.63746577501297, -0.04923977702856064, 0.7646747827529907, 11.097542762756348, -0.36735227704048157, 1.8119401931762695, -7.657427787780762, -8.4963960647583, -2.0269570350646973, 
339, 150461941, 0.0806921049952507, 0.6378383040428162, -0.049515143036842346, 0.7643294334411621, 11.116063117980957, -0.4230491518974304, 1.798696756362915, -7.359790325164795, -9.224635124206543, -0.29033735394477844, 
340, 150470274, 0.08090662956237793, 0.6382553577423096, -0.05000946670770645, 0.7639263868331909, 11.003779411315918, -0.3651716709136963, 1.8683934211730957, -7.160459995269775, -8.751412391662598, 1.3915574550628662, 
341, 150478607, 0.08089736849069595, 0.6385157704353333, -0.0503828190267086, 0.7636851668357849, 10.7614164352417, -0.18935787677764893, 1.8252846002578735, -6.995222568511963, -7.305769443511963, 2.43269944190979, 
342, 150486940, 0.08097746223211288, 0.6387921571731567, -0.05090535432100296, 0.7634109854698181, 10.492701530456543, -0.0883917585015297, 1.813570499420166, -6.355968475341797, -6.27067232131958, 3.2923645973205566, 
343, 150495273, 0.08080901950597763, 0.6389440298080444, -0.051261886954307556, 0.7632775902748108, 10.256522178649902, -0.29664769768714905, 1.8677181005477905, -5.528602600097656, -5.275661945343018, 4.073163032531738, 
344, 150503606, 0.08070787787437439, 0.6391450762748718, -0.05175597965717316, 0.7630866169929504, 10.078683853149414, -0.24520458281040192, 1.8317352533340454, -4.499344825744629, -4.84938907623291, 5.088921070098877, 
345, 150511939, 0.08054248988628387, 0.6392341256141663, -0.05223482474684715, 0.762997031211853, 9.899275779724121, -0.489642471075058, 1.7839751243591309, -3.771568536758423, -4.260262489318848, 5.716521739959717, 
346, 150520272, 0.08027629554271698, 0.6393828988075256, -0.052669573575258255, 0.7628706097602844, 9.72272777557373, -0.5679850578308105, 1.7326650619506836, -2.4465439319610596, -3.791522264480591, 6.406134128570557, 
347, 150528605, 0.07974223047494888, 0.6394477486610413, -0.05289212241768837, 0.7628567814826965, 9.555310249328613, -0.6487998962402344, 1.6868869066238403, -0.8439635634422302, -3.3727803230285645, 6.818523406982422, 
348, 150536938, 0.07928571850061417, 0.6395559906959534, -0.053174328058958054, 0.7627940773963928, 9.455072402954102, -0.8581759333610535, 1.6242111921310425, 0.826276957988739, -2.777556896209717, 7.160805702209473, 
349, 150545271, 0.0787205696105957, 0.6395716071128845, -0.053358547389507294, 0.7628265619277954, 9.382585525512695, -0.9907174706459045, 1.6665093898773193, 2.8504416942596436, -2.347057819366455, 7.344074726104736, 
350, 150553604, 0.07805496454238892, 0.6396557688713074, -0.0534212701022625, 0.7628201246261597, 9.362139701843262, -0.9975793957710266, 1.6378514766693115, 4.97301721572876, -1.951138973236084, 7.501577854156494, 
351, 150561937, 0.07727965712547302, 0.639646053314209, -0.05338939279317856, 0.7629091739654541, 9.382122039794922, -1.186431884765625, 1.6263762712478638, 7.001433849334717, -1.483371615409851, 7.603163242340088, 
352, 150570270, 0.07643501460552216, 0.6397193670272827, -0.053217608481645584, 0.7629446983337402, 9.350171089172363, -1.191896677017212, 1.6300040483474731, 9.026802062988281, -1.3519706726074219, 7.371328830718994, 
353, 150578603, 0.07532519847154617, 0.6397236585617065, -0.05279451236128807, 0.7630809545516968, 9.32402515411377, -1.0514206886291504, 1.5159056186676025, 10.892467498779297, -1.0831493139266968, 6.998692989349365, 
354, 150586936, 0.07435356825590134, 0.6397790908813477, -0.052361004054546356, 0.7631596326828003, 9.343692779541016, -0.9941115975379944, 1.4418575763702393, 12.90346622467041, -0.6093114614486694, 6.4583611488342285, 
355, 150595269, 0.07332325726747513, 0.6397395133972168, -0.05183120444417, 0.7633287310600281, 9.31919002532959, -0.9904404282569885, 1.3849443197250366, 14.531867980957031, -0.09103301167488098, 5.73009729385376, 
356, 150603602, 0.07229136675596237, 0.639753520488739, -0.05112559348344803, 0.763463020324707, 9.279480934143066, -1.0036678314208984, 1.410658836364746, 16.276735305786133, 0.5416771173477173, 4.781345844268799, 
357, 150611935, 0.07120238244533539, 0.6396769285202026, -0.050327084958553314, 0.7636826634407043, 9.224715232849121, -1.0969555377960205, 1.353600025177002, 17.888614654541016, 1.009213924407959, 3.9419164657592773, 
358, 150620268, 0.070093534886837, 0.6396681666374207, -0.04934396594762802, 0.763856828212738, 9.111323356628418, -0.9463152289390564, 1.3706990480422974, 19.873695373535156, 1.3466304540634155, 3.2047388553619385, 
359, 150628601, 0.0688495859503746, 0.6396386623382568, -0.04824848100543022, 0.7640644907951355, 9.001158714294434, -0.9365028142929077, 1.3216458559036255, 22.431123733520508, 0.630456268787384, 2.7929391860961914, 
360, 150636934, 0.06753180921077728, 0.6397943496704102, -0.04693515598773956, 0.7641336917877197, 8.931316375732422, -0.7548686265945435, 1.2264246940612793, 25.2681884765625, -1.1337378025054932, 2.286187171936035, 
361, 150645267, 0.06588850915431976, 0.6399633288383484, -0.04532192274928093, 0.764232873916626, 8.93549633026123, -0.7419497966766357, 1.1099151372909546, 28.402786254882812, -2.1935276985168457, 1.5401464700698853, 
362, 150653600, 0.0643247663974762, 0.6402643322944641, -0.04355375096201897, 0.7642168998718262, 8.915894508361816, -0.7195062041282654, 1.0227530002593994, 32.290496826171875, -3.155855417251587, 0.6980780959129333, 
363, 150661933, 0.06240374594926834, 0.6405999660491943, -0.04144801199436188, 0.7642118334770203, 8.958277702331543, -0.6921663284301758, 0.801643967628479, 36.314273834228516, -4.538745403289795, -0.11316382884979248, 
364, 150670266, 0.06058109551668167, 0.6410276889801025, -0.0391780287027359, 0.7641195058822632, 9.035810470581055, -0.7248579263687134, 0.762273371219635, 39.90058898925781, -4.882899284362793, -1.1429855823516846, 
365, 150678599, 0.05847984924912453, 0.6413969397544861, -0.03659190982580185, 0.7641015648841858, 9.052218437194824, -0.7178161144256592, 0.8074427247047424, 43.161251068115234, -4.62037992477417, -2.5244662761688232, 
366, 150686932, 0.0565224252641201, 0.6418739557266235, -0.03387702256441116, 0.7639735341072083, 9.148357391357422, -0.6104963421821594, 0.9025845527648926, 45.77924728393555, -5.431457996368408, -3.702263593673706, 
367, 150695265, 0.05436086654663086, 0.6423683166503906, -0.03099418431520462, 0.7638372182846069, 9.382379531860352, -0.4618662893772125, 0.9994649887084961, 47.291717529296875, -6.678771495819092, -4.661722660064697, 
368, 150703598, 0.05241451412439346, 0.6429356932640076, -0.028144288808107376, 0.7636061906814575, 9.659193992614746, -0.4186803102493286, 1.4335863590240479, 47.11357498168945, -7.189828395843506, -5.131796836853027, 
369, 150711931, 0.050328437238931656, 0.643492579460144, -0.025380687788128853, 0.7633742690086365, 9.969390869140625, -0.25887376070022583, 1.9248610734939575, 45.67034912109375, -8.159890174865723, -4.501683712005615, 
370, 150720264, 0.04845315217971802, 0.644108772277832, -0.022887466475367546, 0.763054609298706, 10.304057121276855, 0.20352040231227875, 2.0762381553649902, 42.736331939697266, -8.720584869384766, -2.8046350479125977, 
371, 150728597, 0.046451397240161896, 0.6446733474731445, -0.02067454159259796, 0.7627655863761902, 10.390393257141113, 0.603141725063324, 1.9566242694854736, 39.609413146972656, -9.079874992370605, -0.510159432888031, 
372, 150736930, 0.04454590752720833, 0.6452817916870117, -0.018698249012231827, 0.7624157667160034, 10.153313636779785, 0.8379892706871033, 1.8652153015136719, 37.56156539916992, -9.26114559173584, 2.0755112171173096, 
373, 150745263, 0.042408645153045654, 0.6458961367607117, -0.016910579055547714, 0.7620590329170227, 9.815455436706543, 0.7831208109855652, 1.7171562910079956, 37.02423095703125, -10.510661125183105, 4.780710697174072, 
374, 150753596, 0.04021628201007843, 0.6465693712234497, -0.015168583951890469, 0.7616435289382935, 9.620105743408203, 0.7168301939964294, 1.7135281562805176, 37.66969299316406, -10.740985870361328, 7.102107524871826, 
375, 150761929, 0.03786126524209976, 0.6471117734909058, -0.013470063917338848, 0.7613353133201599, 9.450257301330566, 0.4939587414264679, 1.8284015655517578, 38.718727111816406, -9.409224510192871, 8.100013732910156, 
376, 150770262, 0.03551054000854492, 0.6475374698638916, -0.011632129549980164, 0.7611169815063477, 9.314362525939941, 0.19027993083000183, 2.1667933464050293, 39.986637115478516, -6.383077144622803, 8.057904243469238, 
377, 150778595, 0.03311597928404808, 0.6477584838867188, -0.009766295552253723, 0.7610630989074707, 9.111973762512207, -0.01918221078813076, 2.3248908519744873, 40.96315002441406, -3.712890863418579, 7.318445205688477, 
378, 150786928, 0.030733706429600716, 0.6479009389877319, -0.007753241807222366, 0.7610650062561035, 8.998568534851074, -0.09905414283275604, 2.6339762210845947, 42.00030517578125, -1.38206946849823, 6.975343704223633, 
379, 150795261, 0.02830819971859455, 0.6478932499885559, -0.005821167957037687, 0.7611828446388245, 8.899203300476074, -0.054291728883981705, 2.846409559249878, 42.299278259277344, 0.16993790864944458, 7.2352519035339355, 
380, 150803594, 0.02581873908638954, 0.6478739380836487, -0.0038224777672439814, 0.7613005042076111, 8.90097713470459, 0.1537938416004181, 3.034435272216797, 42.749935150146484, 1.3204030990600586, 8.28802490234375, 
381, 150811927, 0.023193923756480217, 0.6477479934692383, -0.0019903946667909622, 0.7614992260932922, 9.024710655212402, 0.31137171387672424, 3.258676052093506, 43.6103401184082, 1.959197759628296, 10.34661865234375, 
382, 150820260, 0.020290853455662727, 0.6476409435272217, -0.0000866536283865571, 0.7616756558418274, 9.182387351989746, 0.6316633224487305, 3.3014721870422363, 45.41459655761719, 2.7091586589813232, 13.489543914794922, 
383, 150828593, 0.017121460288763046, 0.6473864912986755, 0.001640142872929573, 0.7619678974151611, 9.386249542236328, 0.7007887959480286, 3.294234037399292, 47.47943115234375, 3.9226622581481934, 17.077367782592773, 
384, 150836926, 0.013617027550935745, 0.647071361541748, 0.003450597869232297, 0.7623001337051392, 9.199204444885254, 0.9443768262863159, 3.1830523014068604, 49.740882873535156, 6.249107837677002, 20.65771484375, 
385, 150845259, 0.009934436529874802, 0.6466228365898132, 0.005032292101532221, 0.762728750705719, 8.988194465637207, 0.6858372688293457, 3.048030138015747, 51.5222282409668, 6.99584436416626, 24.029619216918945, 
386, 150853592, 0.005937152076512575, 0.6462631225585938, 0.006683690007776022, 0.7630624175071716, 8.844536781311035, 0.6545500159263611, 2.827397346496582, 52.451778411865234, 6.721721649169922, 27.2452449798584, 
387, 150861925, 0.0019479752518236637, 0.6459116339683533, 0.008026440627872944, 0.7633674740791321, 8.833769798278809, 0.49758750200271606, 2.857672929763794, 52.145511627197266, 4.714353084564209, 29.541282653808594, 
388, 150870258, -0.0021839227993041277, 0.6457910537719727, 0.00942606944590807, 0.7634528875350952, 9.083695411682129, 0.5352612137794495, 2.692207098007202, 51.04734420776367, 1.9947789907455444, 30.913190841674805, 
389, 150878591, -0.006045280024409294, 0.645726203918457, 0.010512121953070164, 0.7634727954864502, 9.212759017944336, 0.3849909007549286, 2.7344489097595215, 48.77167892456055, -0.9843066930770874, 30.670480728149414, 
390, 150886924, -0.00984519999474287, 0.6459038257598877, 0.011702298186719418, 0.7632656693458557, 9.403083801269531, 0.41384804248809814, 2.544118642807007, 45.928253173828125, -3.7812089920043945, 29.348445892333984, 
391, 150895257, -0.013156909495592117, 0.6460568904876709, 0.01258277427405119, 0.7630723118782043, 9.550808906555176, 0.591178297996521, 2.3643476963043213, 41.76313400268555, -5.349262237548828, 26.85662078857422, 
392, 150903590, -0.016217468306422234, 0.6463285088539124, 0.013596395961940289, 0.7627660632133484, 9.594491004943848, 0.8469339609146118, 2.221207857131958, 37.516021728515625, -5.758065223693848, 23.191360473632812, 
393, 150911923, -0.018662896007299423, 0.646486222743988, 0.014377259649336338, 0.7625619769096375, 9.663614273071289, 1.1617695093154907, 2.3497543334960938, 33.292667388916016, -5.708190441131592, 18.77460479736328, 
394, 150920256, -0.02079283446073532, 0.6467813849449158, 0.015338967554271221, 0.7622376680374146, 9.708996772766113, 1.3548691272735596, 2.2002344131469727, 28.703392028808594, -6.341207027435303, 13.904059410095215, 
395, 150928589, -0.022326558828353882, 0.6470394134521484, 0.016100455075502396, 0.7619596123695374, 9.9337739944458, 1.4308210611343384, 2.0595273971557617, 24.9000244140625, -7.649375915527344, 9.546917915344238, 
396, 150936922, -0.023679692298173904, 0.6474514007568359, 0.017055464908480644, 0.761547863483429, 10.164621353149414, 1.5209676027297974, 1.8732450008392334, 21.716859817504883, -8.51667308807373, 5.875242233276367, 
397, 150945255, -0.024555319920182228, 0.6477627754211426, 0.017809191718697548, 0.7612380981445312, 10.347743034362793, 1.5785390138626099, 1.6036535501480103, 19.043472290039062, -8.661276817321777, 2.925095319747925, 
398, 150953588, -0.025382163003087044, 0.6481724381446838, 0.018717091530561447, 0.7608404159545898, 10.641033172607422, 1.8027231693267822, 1.334435224533081, 16.54460906982422, -8.482283592224121, 0.7814264297485352, 
399, 150961921, -0.025817595422267914, 0.6484023332595825, 0.019432688131928444, 0.760611891746521, 10.590723037719727, 1.3213305473327637, 1.5616692304611206, 14.459649085998535, -7.1520466804504395, -1.2576719522476196, 
400, 150970254, -0.026287246495485306, 0.6487779021263123, 0.02031768299639225, 0.7602523565292358, 10.512591361999512, 0.858361542224884, 1.3689361810684204, 13.1342134475708, -7.876135349273682, -2.771575689315796, 
401, 150978587, -0.02643408440053463, 0.6490379571914673, 0.021061809733510017, 0.7600051164627075, 10.735554695129395, 0.6375615000724792, 1.1714943647384644, 12.303633689880371, -7.6601176261901855, -4.320584297180176, 
402, 150986920, -0.026692522689700127, 0.6492906212806702, 0.022023309022188187, 0.7597529292106628, 10.92609977722168, 0.24753305315971375, 1.144653081893921, 12.072309494018555, -5.723911285400391, -5.736231327056885, 
403, 150995253, -0.026690496131777763, 0.6493678689002991, 0.022884147241711617, 0.7596613764762878, 11.034996032714844, 0.05350782722234726, 1.2408236265182495, 12.355042457580566, -4.36533260345459, -6.925937175750732, 
404, 151003586, -0.02684348076581955, 0.6494513750076294, 0.023966509848833084, 0.7595512866973877, 11.232166290283203, 0.20726025104522705, 1.2205815315246582, 12.423995018005371, -2.767439365386963, -8.020331382751465, 
405, 151011919, -0.02671099826693535, 0.6492787599563599, 0.02494492009282112, 0.7596720457077026, 11.447617530822754, 0.1603778749704361, 1.380653977394104, 12.479998588562012, 0.1490236520767212, -9.476794242858887, 
406, 151020252, -0.026785552501678467, 0.6491001844406128, 0.02615140564739704, 0.7597814798355103, 11.304858207702637, -0.02569274790585041, 1.7250213623046875, 13.055399894714355, 1.8580057621002197, -10.112361907958984, 
407, 151028585, -0.0266744215041399, 0.6487999558448792, 0.02727234549820423, 0.7600022554397583, 11.356067657470703, 0.023323407396674156, 1.6882553100585938, 14.034517288208008, 2.4159481525421143, -10.610878944396973, 
408, 151036918, -0.026816343888640404, 0.6484894752502441, 0.028624577447772026, 0.7602124214172363, 11.320466041564941, 0.08684854954481125, 1.8770331144332886, 15.201448440551758, 4.105437755584717, -10.789691925048828, 
409, 151045251, -0.02679808810353279, 0.648007869720459, 0.029884077608585358, 0.7605753540992737, 11.146478652954102, 0.0517100989818573, 1.8808438777923584, 16.517345428466797, 5.6109795570373535, -10.970107078552246, 
410, 151053584, -0.02706836350262165, 0.6475683450698853, 0.03140809014439583, 0.7608787417411804, 10.838088989257812, -0.10257655382156372, 1.9410499334335327, 18.16452407836914, 6.27259635925293, -11.059348106384277, 
411, 151061917, -0.02719627134501934, 0.6470775008201599, 0.03285790979862213, 0.7612304091453552, 10.644624710083008, 0.047619856894016266, 1.8107134103775024, 19.60826873779297, 5.624324321746826, -11.16541576385498, 
412, 151070250, -0.027555909007787704, 0.646571695804596, 0.034559257328510284, 0.7615719437599182, 10.555391311645508, 0.7003923058509827, 1.6985007524490356, 20.83429527282715, 7.279825687408447, -11.743762016296387, 
413, 151078583, -0.027692478150129318, 0.6458635926246643, 0.03617675602436066, 0.7620922923088074, 10.118769645690918, 0.6692917346954346, 1.8251688480377197, 21.597105026245117, 9.360638618469238, -12.714069366455078, 
414, 151086916, -0.02800983004271984, 0.6452950835227966, 0.037990182638168335, 0.7624740600585938, 9.874622344970703, 0.7639792561531067, 1.9482494592666626, 21.64801025390625, 8.230984687805176, -13.219156265258789, 
415, 151095249, -0.028018422424793243, 0.6447497010231018, 0.03964214399456978, 0.7628507614135742, 9.659581184387207, 0.685022234916687, 1.9921692609786987, 20.7214298248291, 6.330574989318848, -14.180100440979004, 
416, 151103582, -0.028176238760352135, 0.6444028615951538, 0.041431840509176254, 0.7630429863929749, 9.449572563171387, 0.534406840801239, 2.0824995040893555, 20.011310577392578, 4.150942325592041, -14.485637664794922, 
417, 151111915, -0.0280939731746912, 0.6440661549568176, 0.0430699959397316, 0.7632395625114441, 9.416245460510254, 0.8774363398551941, 1.8819559812545776, 19.666261672973633, 2.5012824535369873, -14.788168907165527, 
418, 151120248, -0.028234349563717842, 0.6438503265380859, 0.04489763081073761, 0.7633113265037537, 9.258319854736328, 0.7543569803237915, 2.0255610942840576, 20.28510284423828, 1.6830867528915405, -14.87623119354248, 
419, 151128581, -0.028180357068777084, 0.6437042355537415, 0.04660393297672272, 0.7633340358734131, 9.228297233581543, 0.5791918039321899, 1.796517014503479, 20.791929244995117, -1.0450997352600098, -14.8403959274292, 
420, 151136914, -0.028396563604474068, 0.6437336802482605, 0.04848950728774071, 0.7631837129592896, 9.211478233337402, 0.7387620210647583, 1.8401273488998413, 21.6197566986084, -2.828517198562622, -14.349881172180176, 
421, 151145247, -0.028474194929003716, 0.6437997817993164, 0.050265904515981674, 0.7630103230476379, 9.161493301391602, 0.7996447682380676, 1.7385443449020386, 22.611446380615234, -4.952733516693115, -13.85079288482666, 
422, 151153580, -0.028841137886047363, 0.644049346446991, 0.05221828073263168, 0.7626546025276184, 9.155892372131348, 0.8078669905662537, 1.6563584804534912, 23.720029830932617, -6.880385875701904, -13.126139640808105, 
423, 151161913, -0.029068678617477417, 0.6443616151809692, 0.05405332148075104, 0.7622542381286621, 9.273398399353027, 0.7454888224601746, 1.6182676553726196, 24.498727798461914, -9.451723098754883, -12.5148286819458, 
424, 151170246, -0.02954600565135479, 0.6448713541030884, 0.05604302138090134, 0.7616609930992126, 9.346967697143555, 0.6064169406890869, 1.4953004121780396, 25.170528411865234, -11.645445823669434, -12.013367652893066, 
425, 151178579, -0.029865942895412445, 0.6454145908355713, 0.057945165783166885, 0.7610456347465515, 9.453361511230469, 0.5628612637519836, 1.2768537998199463, 26.35393524169922, -13.694536209106445, -11.806534767150879, 
426, 151186912, -0.030439717695116997, 0.6461014151573181, 0.06005802005529404, 0.7602759599685669, 9.667069435119629, 0.24329298734664917, 1.1312496662139893, 27.392566680908203, -15.039361000061035, -11.883965492248535, 
427, 151195245, -0.03087562695145607, 0.6467323899269104, 0.06211140379309654, 0.7595565319061279, 9.770390510559082, 0.21081453561782837, 1.1034818887710571, 28.96470832824707, -15.451739311218262, -11.830830574035645, 
428, 151203578, -0.03155532851815224, 0.6474332213401794, 0.06438679248094559, 0.7587416768074036, 9.783930778503418, 0.14591549336910248, 1.017501711845398, 30.075986862182617, -15.567028999328613, -12.188713073730469, 
429, 151211911, -0.03223942220211029, 0.6480770111083984, 0.06675532460212708, 0.7579582333564758, 9.725299835205078, 0.40084320306777954, 1.0940545797348022, 31.110958099365234, -16.19645118713379, -12.575567245483398, 
430, 151220244, -0.032928984612226486, 0.6488417983055115, 0.0691639706492424, 0.7570578455924988, 9.618208885192871, 0.5687728524208069, 1.1182432174682617, 31.61310386657715, -17.04863929748535, -13.170639038085938, 
431, 151228577, -0.03357183560729027, 0.6495661735534668, 0.07163531333208084, 0.7561780214309692, 9.493492126464844, 0.8421756029129028, 1.0707892179489136, 31.876008987426758, -17.911943435668945, -13.832075119018555, 
432, 151236910, -0.0341850183904171, 0.6504495739936829, 0.07413896173238754, 0.7551491856575012, 9.381190299987793, 1.1334271430969238, 1.0040580034255981, 31.992094039916992, -19.54907989501953, -14.636056900024414, 
433, 151245243, -0.03469886630773544, 0.6513500809669495, 0.0766712948679924, 0.7540959715843201, 9.321820259094238, 1.2889162302017212, 0.9817251563072205, 31.449462890625, -21.39238739013672, -15.449389457702637, 
434, 151253576, -0.03516364470124245, 0.6524072289466858, 0.07916145026683807, 0.7529023885726929, 9.173227310180664, 1.5053479671478271, 0.96449875831604, 30.614639282226562, -22.977935791015625, -15.793720245361328, 
435, 151261909, -0.03553851693868637, 0.6535388231277466, 0.08160245418548584, 0.7516416311264038, 9.021735191345215, 1.5663753747940063, 0.9543141722679138, 29.365995407104492, -25.692241668701172, -15.66453742980957, 
436, 151270242, -0.03584318608045578, 0.6549724340438843, 0.08396481722593307, 0.7501177191734314, 8.904461860656738, 1.4948523044586182, 0.8512361645698547, 28.040756225585938, -29.95545768737793, -15.721760749816895, 
437, 151278575, -0.0360608771443367, 0.6565459966659546, 0.08633075654506683, 0.7484612464904785, 8.998184204101562, 1.6400927305221558, 0.6062872409820557, 27.401559829711914, -33.90692901611328, -15.834341049194336, 
438, 151286908, -0.03631773218512535, 0.6583218574523926, 0.08874503523111343, 0.7466042041778564, 9.134936332702637, 1.5375010967254639, 0.42323997616767883, 28.3663387298584, -36.56855773925781, -16.116933822631836, 
439, 151295241, -0.036544907838106155, 0.6600719690322876, 0.09129591286182404, 0.7447379231452942, 9.192437171936035, 1.4729474782943726, 0.30787986516952515, 29.545345306396484, -37.638221740722656, -17.014331817626953, 
440, 151303574, -0.036728981882333755, 0.6619749665260315, 0.0939008817076683, 0.7427130937576294, 8.735519409179688, 1.489052653312683, 0.5829577445983887, 29.809459686279297, -39.58209228515625, -18.34556007385254, 
441, 151311907, -0.036765437573194504, 0.6638338565826416, 0.09667368233203888, 0.7406938672065735, 9.6950101852417, 1.4102362394332886, -0.7687984108924866, 30.215681076049805, -40.403831481933594, -20.70328140258789, 
442, 151320240, -0.03682029992341995, 0.6655464768409729, 0.09950656443834305, 0.738776683807373, 9.773554801940918, 1.050586223602295, 0.10445144772529602, 30.912790298461914, -36.9437141418457, -22.045827865600586, 
443, 151328573, -0.036742717027664185, 0.6672579646110535, 0.10239043831825256, 0.736840009689331, 9.40623950958252, 1.0239753723144531, 0.08322639018297195, 30.26237678527832, -38.238712310791016, -23.059545516967773, 
444, 151336906, -0.036768749356269836, 0.6690540909767151, 0.10537686944007874, 0.7347861528396606, 9.480993270874023, 1.086134433746338, -0.28260180354118347, 32.359283447265625, -39.16035079956055, -23.562931060791016, 
445, 151345239, -0.03671837970614433, 0.6706997752189636, 0.10839754343032837, 0.7328463792800903, 9.104203224182129, 1.0197935104370117, -0.16086462140083313, 31.932004928588867, -37.533172607421875, -24.13251495361328, 
446, 151353572, -0.03666634112596512, 0.6726531982421875, 0.11142570525407791, 0.7306009531021118, 8.613389015197754, 1.081495761871338, -0.12389357388019562, 32.271724700927734, -42.647483825683594, -24.396236419677734, 
447, 151361905, -0.03647810220718384, 0.6747863292694092, 0.1145121157169342, 0.7281619906425476, 8.601080894470215, 1.226330041885376, -0.17193126678466797, 31.828405380249023, -47.18136215209961, -25.140365600585938, 
448, 151370238, -0.03629356250166893, 0.677135169506073, 0.1175859197974205, 0.7254959940910339, 8.633379936218262, 1.5933310985565186, -0.41430431604385376, 31.960046768188477, -50.737796783447266, -25.32185173034668, 
449, 151378571, -0.03597348928451538, 0.6795980930328369, 0.12069623917341232, 0.7226927876472473, 8.699891090393066, 1.8884550333023071, -0.5252012610435486, 31.25748634338379, -54.00056838989258, -25.963476181030273, 
450, 151386904, -0.035639844834804535, 0.6821914911270142, 0.12371741235256195, 0.7197490334510803, 8.98771858215332, 1.9620565176010132, -0.7571958303451538, 30.382959365844727, -55.9814567565918, -25.774261474609375, 
451, 151395237, -0.03523309901356697, 0.6846869587898254, 0.12668675184249878, 0.7168774008750916, 9.047264099121094, 2.159334659576416, -0.9038291573524475, 29.138687133789062, -54.93477249145508, -25.363174438476562, 
452, 151403570, -0.03487369790673256, 0.6872127056121826, 0.12949611246585846, 0.713970422744751, 8.860103607177734, 2.2660157680511475, -0.9077595472335815, 28.026050567626953, -54.908843994140625, -24.168827056884766, 
453, 151411903, -0.034455638378858566, 0.6897588968276978, 0.13218890130519867, 0.7110356688499451, 8.862177848815918, 2.271320343017578, -0.7809520363807678, 26.392621994018555, -55.79112243652344, -22.669950485229492, 
454, 151420236, -0.03399631381034851, 0.6924629211425781, 0.1346866935491562, 0.7079540491104126, 8.830650329589844, 2.2595505714416504, -0.8127518892288208, 24.260845184326172, -58.341243743896484, -21.789562225341797, 
455, 151428569, -0.03343990817666054, 0.6952455639839172, 0.13717596232891083, 0.7047681212425232, 8.784501075744629, 2.1132757663726807, -0.7726927995681763, 23.43608283996582, -60.537925720214844, -21.45170021057129, 
456, 151436902, -0.03288968652486801, 0.6982241868972778, 0.13963620364665985, 0.7013580203056335, 8.91020393371582, 2.03898286819458, -0.644969642162323, 23.51972198486328, -64.29631805419922, -21.6461238861084, 
457, 151445235, -0.03217080608010292, 0.7012311220169067, 0.1421852707862854, 0.6978706121444702, 8.84044075012207, 1.9604120254516602, -0.7246840596199036, 22.92673110961914, -65.84479522705078, -22.959014892578125, 
458, 151453568, -0.03139163926243782, 0.7043914794921875, 0.144723042845726, 0.6941920518875122, 8.891114234924316, 1.913450002670288, -0.7724461555480957, 22.50799560546875, -69.10474395751953, -24.11997413635254, 
459, 151461901, -0.030426401644945145, 0.7074806690216064, 0.14734993875026703, 0.690531313419342, 9.127260208129883, 1.8646719455718994, -1.2942532300949097, 21.597455978393555, -68.77259826660156, -25.78774642944336, 
460, 151470234, -0.02943187952041626, 0.7106448411941528, 0.14994463324546814, 0.6867564916610718, 8.808121681213379, 2.0281362533569336, -0.2547343373298645, 21.160799026489258, -70.53048706054688, -26.672258377075195, 
461, 151478567, -0.028179511427879333, 0.7140321135520935, 0.15248055756092072, 0.6827252507209778, 8.588982582092285, 1.72545325756073, -0.5383217334747314, 18.58290672302246, -75.68717193603516, -26.8238582611084, 
462, 151486900, -0.026807215064764023, 0.7176052331924438, 0.15486837923526764, 0.6784834265708923, 9.219775199890137, 1.7795151472091675, -1.0092732906341553, 16.325708389282227, -79.65988159179688, -27.165910720825195, 
463, 151495233, -0.02533878944814205, 0.7210188508033752, 0.15723340213298798, 0.6743645668029785, 9.44626522064209, 1.6331920623779297, -1.4847420454025269, 15.047186851501465, -77.19285583496094, -27.062116622924805, 
464, 151503566, -0.024072008207440376, 0.7242838144302368, 0.1595359593629837, 0.6703596115112305, 9.413278579711914, 1.5385633707046509, -1.4571943283081055, 16.185110092163086, -74.18822479248047, -26.09161376953125, 
465, 151511899, -0.022899353876709938, 0.7274600863456726, 0.1619080901145935, 0.6663809418678284, 9.455360412597656, 1.5146063566207886, -1.4730713367462158, 17.837032318115234, -72.91351318359375, -24.974515914916992, 
466, 151520232, -0.02192973718047142, 0.7305429577827454, 0.16414110362529755, 0.6624833345413208, 9.661243438720703, 1.5278126001358032, -1.2906062602996826, 18.341449737548828, -70.76481628417969, -23.099140167236328, 
467, 151528565, -0.02105141058564186, 0.7334778904914856, 0.16633546352386475, 0.6587105989456177, 9.510336875915527, 1.7639622688293457, -1.499388575553894, 18.778228759765625, -67.88106536865234, -21.14472770690918, 
468, 151536898, -0.020340049639344215, 0.7363210320472717, 0.1682937890291214, 0.6550534963607788, 9.500947952270508, 1.8901057243347168, -1.4449414014816284, 17.976825714111328, -65.4983139038086, -18.597450256347656, 
469, 151545231, -0.019583839923143387, 0.7390480637550354, 0.17009180784225464, 0.6515316367149353, 9.539680480957031, 2.1075055599212646, -1.7871639728546143, 15.9173002243042, -63.05298614501953, -16.61691665649414, 
470, 151553564, -0.018995871767401695, 0.7415137887001038, 0.17170634865760803, 0.648315966129303, 9.85117244720459, 2.1381914615631104, -2.0255186557769775, 15.21806812286377, -57.24605178833008, -15.005276679992676, 
471, 151561897, -0.018492955714464188, 0.7437644004821777, 0.1732339859008789, 0.6453391909599304, 9.596704483032227, 2.407575845718384, -1.700829267501831, 14.932923316955566, -52.55775833129883, -12.870803833007812, 
472, 151570230, -0.018120087683200836, 0.7459603548049927, 0.17450402677059174, 0.64246666431427, 9.423651695251465, 2.660583019256592, -1.396815538406372, 13.611247062683105, -50.74225997924805, -10.294617652893066, 
473, 151578563, -0.017624879255890846, 0.7480630278587341, 0.17557595670223236, 0.6397377252578735, 9.483962059020996, 2.889460802078247, -1.499657392501831, 10.42648983001709, -48.5552978515625, -8.536704063415527, 
474, 151586896, -0.01711828075349331, 0.7500311136245728, 0.1764054149389267, 0.6372140645980835, 9.450645446777344, 2.7175819873809814, -1.9431910514831543, 7.5705952644348145, -45.36273956298828, -7.582083702087402, 
475, 151595229, -0.016478680074214935, 0.7518694400787354, 0.17711825668811798, 0.6348623633384705, 9.475671768188477, 2.7947945594787598, -1.8308137655258179, 4.960076808929443, -42.63715744018555, -6.779676914215088, 
476, 151603562, -0.015861876308918, 0.753577470779419, 0.1776568591594696, 0.6326989531517029, 9.459633827209473, 2.9727890491485596, -1.8699183464050293, 3.0758514404296875, -39.56877136230469, -6.258130073547363, 
477, 151611895, -0.015134481713175774, 0.7551196217536926, 0.1781134456396103, 0.6307464241981506, 9.496400833129883, 2.8476831912994385, -1.9327360391616821, 0.9253280162811279, -36.083221435546875, -5.649788856506348, 
478, 151620228, -0.014461608603596687, 0.7564800977706909, 0.1783633977174759, 0.6290590763092041, 9.567564010620117, 2.7378456592559814, -1.9506285190582275, -1.1007981300354004, -31.687061309814453, -4.700369358062744, 
479, 151628561, -0.01366786751896143, 0.7576503753662109, 0.17852121591567993, 0.6276220083236694, 9.647954940795898, 2.7320399284362793, -2.089447498321533, -3.5224461555480957, -27.61495590209961, -4.074817657470703, 
480, 151636894, -0.012905354611575603, 0.7586037516593933, 0.1784747838973999, 0.626498818397522, 9.820988655090332, 2.7968249320983887, -2.177746057510376, -5.898935317993164, -22.45962142944336, -3.4954988956451416, 
481, 151645227, -0.012053278274834156, 0.7593111395835876, 0.178327739238739, 0.6256999969482422, 9.958344459533691, 2.739928960800171, -2.3463916778564453, -8.22629451751709, -17.074478149414062, -2.612114667892456, 
482, 151653560, -0.0112660126760602, 0.7597863674163818, 0.17794454097747803, 0.6252467632293701, 9.860810279846191, 2.7667908668518066, -2.2663774490356445, -10.617331504821777, -11.354715347290039, -1.4775316715240479, 
483, 151661893, -0.010358603671193123, 0.7600985169410706, 0.17744094133377075, 0.6250260472297668, 9.60660171508789, 2.7117156982421875, -2.256247043609619, -13.216845512390137, -7.718492031097412, -0.3885679841041565, 
484, 151670226, -0.00946858525276184, 0.7603594064712524, 0.17669154703617096, 0.6249351501464844, 9.483920097351074, 2.72416353225708, -2.254073143005371, -15.693049430847168, -5.924163818359375, 0.8894928693771362, 
485, 151678559, -0.008467600680887699, 0.7605294585227966, 0.17583224177360535, 0.6249849796295166, 9.462878227233887, 2.791313648223877, -2.341140031814575, -17.886808395385742, -3.8547379970550537, 2.1788370609283447, 
486, 151686892, -0.0075375852175056934, 0.7606632113456726, 0.17475225031375885, 0.6251369118690491, 9.343475341796875, 2.7029311656951904, -2.403963804244995, -19.52466583251953, -2.351900100708008, 3.6681265830993652, 
487, 151695225, -0.00652969628572464, 0.7607913017272949, 0.17357821762561798, 0.6253196597099304, 9.179057121276855, 2.610783338546753, -2.4842777252197266, -20.976093292236328, -2.0847432613372803, 5.334537506103516, 
488, 151703558, -0.005614541471004486, 0.7609659433364868, 0.17214593291282654, 0.6255118250846863, 9.159656524658203, 2.431094169616699, -2.742849111557007, -22.499147415161133, -2.2164266109466553, 7.578117370605469, 
489, 151711891, -0.0046508475206792355, 0.761155903339386, 0.17061889171600342, 0.6257071495056152, 9.390904426574707, 2.290778875350952, -2.875053644180298, -23.585290908813477, -2.336864471435547, 9.58973217010498, 
490, 151720224, -0.003836223389953375, 0.7613440752029419, 0.1689101755619049, 0.6259472370147705, 9.678425788879395, 2.017347812652588, -2.8237345218658447, -23.94005012512207, -1.5777610540390015, 11.368693351745605, 
491, 151728557, -0.0030792164616286755, 0.7614766955375671, 0.1672183722257614, 0.626244306564331, 9.81191349029541, 1.6456031799316406, -2.659607172012329, -23.086097717285156, -0.24067148566246033, 12.963334083557129, 
492, 151736890, -0.002578282728791237, 0.7616194486618042, 0.16547630727291107, 0.6265356540679932, 9.728510856628418, 1.255077600479126, -2.561707019805908, -21.05965232849121, 0.07367939502000809, 14.314152717590332, 
493, 151745223, -0.002185973571613431, 0.7618033289909363, 0.1638668328523636, 0.6267365217208862, 9.596120834350586, 1.0540447235107422, -2.3952667713165283, -18.3601131439209, -0.8232674598693848, 15.322863578796387, 
494, 151753556, -0.0020118742249906063, 0.7620822787284851, 0.16228003799915314, 0.6268108487129211, 9.433987617492676, 0.9029197096824646, -2.2677114009857178, -15.81208324432373, -2.641571521759033, 15.822519302368164, 
495, 151761889, -0.0018859687261283398, 0.7624469995498657, 0.16090987622737885, 0.6267209053039551, 9.54172420501709, 0.8265644311904907, -2.331859588623047, -12.881967544555664, -4.820216655731201, 15.429726600646973, 
496, 151770222, -0.0019080135971307755, 0.7628540396690369, 0.15967249870300293, 0.6265420317649841, 9.80380916595459, 0.6757659316062927, -2.438889980316162, -10.185247421264648, -5.9756999015808105, 14.146629333496094, 
497, 151778555, -0.0019303788430988789, 0.7632054686546326, 0.15867979824543, 0.626366138458252, 9.87891960144043, 0.6832687258720398, -2.533266544342041, -7.907345771789551, -5.279094219207764, 12.609748840332031, 
498, 151786888, -0.002067929832264781, 0.7635417580604553, 0.15780837833881378, 0.6261759996414185, 9.746859550476074, 0.9421893358230591, -2.4221534729003906, -5.793582439422607, -5.240596771240234, 11.148816108703613, 
499, 151795221, -0.002197314752265811, 0.7639616131782532, 0.15714260935783386, 0.6258307695388794, 9.708447456359863, 1.255196452140808, -2.2210443019866943, -3.6327908039093018, -7.4012603759765625, 10.126808166503906, 
500, 151803554, -0.0024033058434724808, 0.7644937038421631, 0.15656539797782898, 0.6253249049186707, 9.867419242858887, 1.5710945129394531, -2.1593267917633057, -1.8640506267547607, -10.103229522705078, 9.084615707397461, 
501, 151811887, -0.002569989301264286, 0.7651068568229675, 0.15610156953334808, 0.6246897578239441, 10.01113224029541, 1.7597103118896484, -2.3505611419677734, -0.9014163613319397, -12.026885032653809, 8.662262916564941, 
502, 151820220, -0.002801398281008005, 0.765792727470398, 0.1555892676115036, 0.6239756941795349, 10.093401908874512, 1.8153280019760132, -2.7691054344177246, -0.5953773260116577, -13.561511039733887, 8.959464073181152, 
503, 151828553, -0.003048916580155492, 0.7665364742279053, 0.15514209866523743, 0.6231722831726074, 10.23017406463623, 1.9173567295074463, -3.109936475753784, 0.44401001930236816, -14.753314971923828, 9.426334381103516, 
504, 151836886, -0.0034595776814967394, 0.7672772407531738, 0.15472741425037384, 0.6223611235618591, 10.567008972167969, 2.007091522216797, -3.217297077178955, 2.336594820022583, -14.677547454833984, 9.593133926391602, 
505, 151845219, -0.0039610122330486774, 0.7678838968276978, 0.15443672239780426, 0.6216817498207092, 10.781216621398926, 2.0568432807922363, -3.2649383544921875, 4.191808700561523, -11.692337989807129, 9.6270751953125, 
506, 151853552, -0.004691730719059706, 0.7683277726173401, 0.1541913002729416, 0.6211889386177063, 10.562928199768066, 2.0382955074310303, -3.2423648834228516, 6.5022125244140625, -8.104011535644531, 9.89702033996582, 
507, 151861885, -0.005592567380517721, 0.7687021493911743, 0.15409083664417267, 0.620742917060852, 10.283483505249023, 1.908538818359375, -2.9427835941314697, 9.541394233703613, -6.352921009063721, 10.510790824890137, 
508, 151870218, -0.006690960377454758, 0.7689827680587769, 0.15400643646717072, 0.620405375957489, 10.299211502075195, 1.7972594499588013, -2.9055728912353516, 11.445353507995605, -4.3001708984375, 10.979994773864746, 
509, 151878551, -0.007864998653531075, 0.7691704034805298, 0.15399135649204254, 0.6201626658439636, 10.240495681762695, 1.698042869567871, -3.055462121963501, 12.734696388244629, -1.9939149618148804, 11.511104583740234, 
510, 151886884, -0.009256883524358273, 0.7691836953163147, 0.15392720699310303, 0.6201428771018982, 10.13219928741455, 1.6100919246673584, -2.881990909576416, 14.075014114379883, 1.9605011940002441, 12.673248291015625, 
511, 151895217, -0.010698585771024227, 0.7691286206245422, 0.15386462211608887, 0.6202035546302795, 9.521596908569336, 1.5787162780761719, -2.5812785625457764, 14.533611297607422, 3.8968610763549805, 13.719103813171387, 
512, 151903550, -0.012134529650211334, 0.7692503333091736, 0.1537342518568039, 0.6200584769248962, 9.312530517578125, 1.6299779415130615, -2.683185577392578, 14.225601196289062, -0.18490923941135406, 13.998940467834473, 
513, 151911883, -0.013518869876861572, 0.7693272233009338, 0.15360058844089508, 0.619967520236969, 9.562264442443848, 1.8624800443649292, -2.4932332038879395, 13.613778114318848, 1.0831623077392578, 14.254210472106934, 
514, 151920216, -0.014806866645812988, 0.7694258093833923, 0.15332244336605072, 0.6198845505714417, 9.305950164794922, 2.197859764099121, -2.641303300857544, 11.270074844360352, 0.38197240233421326, 14.243888854980469, 
515, 151928549, -0.01592143252491951, 0.7695243954658508, 0.152950718998909, 0.6198265552520752, 9.38761043548584, 2.484768867492676, -2.874027967453003, 8.652963638305664, 0.7432355880737305, 14.505073547363281, 
516, 151936882, -0.01693962886929512, 0.7696025371551514, 0.15237672626972198, 0.6198440194129944, 9.478338241577148, 2.7297167778015137, -3.1160411834716797, 5.687193870544434, 1.116896152496338, 15.012186050415039, 
517, 151945215, -0.01781461387872696, 0.7696777582168579, 0.15168547630310059, 0.6198955178260803, 9.763914108276367, 2.6882455348968506, -3.2285821437835693, 3.1726436614990234, 1.7020535469055176, 15.816216468811035, 
518, 151953548, -0.0187637060880661, 0.7696732878684998, 0.15082155168056488, 0.6200838088989258, 10.1898193359375, 2.608696222305298, -3.3467259407043457, 2.1469216346740723, 3.5524003505706787, 17.27984046936035, 
519, 151961881, -0.01971380226314068, 0.7695265412330627, 0.14988939464092255, 0.6204624176025391, 10.425422668457031, 2.373682975769043, -3.463655471801758, 1.2948640584945679, 7.328964710235596, 18.53819465637207, 
520, 151970214, -0.02080054022371769, 0.7692257761955261, 0.1488429456949234, 0.6210514903068542, 10.508106231689453, 2.0904531478881836, -3.159867763519287, 1.29583740234375, 10.654847145080566, 19.669164657592773, 
521, 151978547, -0.021950557827949524, 0.7688398361206055, 0.14785867929458618, 0.6217247247695923, 10.522380828857422, 1.6959149837493896, -2.7990493774414062, 2.425528049468994, 12.975497245788574, 20.276735305786133, 
522, 151986880, -0.02326006442308426, 0.7683674693107605, 0.1468743532896042, 0.6224940419197083, 10.40174388885498, 1.4147968292236328, -2.4904823303222656, 3.865766763687134, 14.464559555053711, 20.5153865814209, 
523, 151995213, -0.024622639641165733, 0.7678679823875427, 0.1460268646478653, 0.6232565641403198, 10.207681655883789, 1.1960467100143433, -2.3686885833740234, 5.690064430236816, 15.304681777954102, 20.39569091796875, 
524, 152003546, -0.02614419534802437, 0.7673496603965759, 0.14524853229522705, 0.6240141987800598, 10.048250198364258, 1.0406380891799927, -2.323014497756958, 7.908130645751953, 15.094337463378906, 20.070621490478516, 
525, 152011879, -0.02771066129207611, 0.7668617963790894, 0.14463026821613312, 0.6246896982192993, 9.987970352172852, 1.0027906894683838, -2.2549123764038086, 9.970077514648438, 14.609894752502441, 19.743450164794922, 
526, 152020212, -0.029412012547254562, 0.7663299441337585, 0.14406731724739075, 0.6253941655158997, 9.980356216430664, 0.9459120035171509, -2.33829927444458, 11.765278816223145, 14.92905044555664, 19.335622787475586, 
527, 152028545, -0.03115449659526348, 0.7657865881919861, 0.14363573491573334, 0.6260744333267212, 9.87619686126709, 0.9326012134552002, -2.388126850128174, 13.435126304626465, 15.406630516052246, 19.12776756286621, 
528, 152036878, -0.033060766756534576, 0.7652313113212585, 0.143242746591568, 0.6267454028129578, 9.867059707641602, 1.0044540166854858, -2.294567584991455, 15.460312843322754, 15.113497734069824, 19.279272079467773, 
529, 152045211, -0.03502825275063515, 0.7646797895431519, 0.14296354353427887, 0.6273750066757202, 9.790620803833008, 1.0350697040557861, -2.127570629119873, 17.211334228515625, 15.32653522491455, 19.418899536132812, 
530, 152053544, -0.03715800493955612, 0.7641341686248779, 0.14270904660224915, 0.6279749274253845, 9.657462120056152, 1.1927669048309326, -1.8862638473510742, 19.13905906677246, 14.659971237182617, 19.803699493408203, 
531, 152061877, -0.03928947076201439, 0.7636566162109375, 0.14250783622264862, 0.6284716725349426, 9.655730247497559, 1.3396855592727661, -1.7337901592254639, 19.82657241821289, 13.575440406799316, 20.190706253051758, 
532, 152070210, -0.041481636464595795, 0.7632290124893188, 0.14224442839622498, 0.628909707069397, 9.550666809082031, 1.4875394105911255, -1.558905005455017, 19.973011016845703, 12.069500923156738, 20.753833770751953, 
533, 152078543, -0.04362132400274277, 0.7629439830780029, 0.14201132953166962, 0.6291635632514954, 9.513660430908203, 1.6490848064422607, -1.4931825399398804, 20.007434844970703, 9.364277839660645, 21.098295211791992, 
534, 152086876, -0.045777179300785065, 0.7627111077308655, 0.1417243480682373, 0.6293573975563049, 9.565502166748047, 1.8980128765106201, -1.4046379327774048, 19.75112533569336, 7.766855716705322, 21.210676193237305, 
535, 152095209, -0.04778008908033371, 0.7625694870948792, 0.14141559600830078, 0.6294495463371277, 9.58698844909668, 1.8743598461151123, -1.5468156337738037, 18.155000686645508, 6.1639933586120605, 21.10701560974121, 
536, 152103542, -0.04976464435458183, 0.7624483704566956, 0.1410357654094696, 0.629527747631073, 9.680694580078125, 1.8530560731887817, -1.6914944648742676, 17.305641174316406, 5.314252853393555, 20.99355697631836, 
537, 152111875, -0.051624104380607605, 0.7623462677001953, 0.1407065987586975, 0.6295751929283142, 9.594080924987793, 1.8246787786483765, -1.7678049802780151, 16.54617691040039, 5.036337375640869, 20.233936309814453, 
538, 152120208, -0.053445763885974884, 0.7622311115264893, 0.14035934209823608, 0.6296401023864746, 9.70647144317627, 1.724599838256836, -1.8332809209823608, 15.903158187866211, 4.786778450012207, 19.265335083007812, 
539, 152128541, -0.05517863854765892, 0.762047290802002, 0.14009147882461548, 0.6297728419303894, 9.71575927734375, 1.5815433263778687, -1.9370312690734863, 15.65677261352539, 6.319611549377441, 18.32426643371582, 
540, 152136874, -0.05700221285223961, 0.761732280254364, 0.1398402601480484, 0.6300473809242249, 9.793389320373535, 1.4465235471725464, -2.1605207920074463, 16.499048233032227, 8.646307945251465, 17.73452377319336, 
541, 152145207, -0.05879579856991768, 0.7613062262535095, 0.139695942401886, 0.6304291486740112, 9.806512832641602, 1.3168681859970093, -1.9794301986694336, 17.0758056640625, 11.031047821044922, 16.93718147277832, 
542, 152153540, -0.06072297319769859, 0.7607415914535522, 0.13955123722553253, 0.6309599280357361, 9.663150787353516, 1.1766119003295898, -1.803573727607727, 18.211721420288086, 13.610427856445312, 16.833646774291992, 
543, 152161873, -0.06262229382991791, 0.7601114511489868, 0.13947813212871552, 0.6315498352050781, 9.583845138549805, 1.1204204559326172, -1.6542240381240845, 18.570667266845703, 15.124091148376465, 16.56878662109375, 
544, 152170206, -0.06456722319126129, 0.7594538331031799, 0.13937067985534668, 0.6321684122085571, 9.385740280151367, 1.0634000301361084, -1.5155500173568726, 18.630067825317383, 15.338224411010742, 16.350114822387695, 
545, 152178539, -0.06646138429641724, 0.7588104605674744, 0.13933099806308746, 0.6327531933784485, 9.331417083740234, 0.9922106862068176, -1.6747304201126099, 18.830230712890625, 15.125203132629395, 16.16288948059082, 
