PacketCounter,SampleTimeFine,Quat_W,Quat_X,Quat_Y,Quat_Z,dq_W,dq_X,dq_Y,dq_Z,dv[1],dv[2],dv[3],Acc_X,Acc_Y,Acc_Z,Gyr_X,Gyr_Y,Gyr_Z,Mag_X,Mag_Y,Mag_Z,Status,
181, 714031648, 0.37183165550231934, 0.5320614576339722, -0.30528801679611206, 0.6967432498931885, 0.9999999403953552, 0.00018506962805986404, 0.00022077839821577072, 0.00006422307342290878, 0.08152353763580322, -0.00048798322677612305, 0.01855647563934326, 9.782706260681152, -0.05878173187375069, 2.2290937900543213, 2.544991970062256, 3.0360424518585205, 0.8831660151481628, -0.69921875, -0.2763671875, -0.62451171875, 0, 
182, 714039981, 0.3718392550945282, 0.5319250822067261, -0.30516645312309265, 0.6968966126441956, 1, 0.00010451674461364746, 0.0002221371978521347, 0.000034496188163757324, 0.08160310983657837, -0.00007128715515136719, 0.018850743770599365, 9.792276382446289, -0.008652889169752598, 2.2642903327941895, 1.4372659921646118, 3.0547280311584473, 0.4743756353855133, -0.69921875, -0.27685546875, -0.6240234375, 0, 
183, 714048314, 0.37194913625717163, 0.5317546725273132, -0.30510908365249634, 0.6969929933547974, 1, 0.000015346333384513855, 0.00021147355437278748, 4.76837158203125e-7, 0.08168870210647583, 0.0006048083305358887, 0.0190889835357666, 9.80239200592041, 0.07262042909860611, 2.293516159057617, 0.21103568375110626, 2.9080865383148193, 0.006557243410497904, -0.69677734375, -0.2763671875, -0.62451171875, 0, 
184, 714056647, 0.3720889687538147, 0.531593382358551, -0.305098295211792, 0.6970462203025818, 1, -0.00008222553879022598, 0.0001853983849287033, -0.00002823304384946823, 0.08187276124954224, 0.0009800195693969727, 0.0190621018409729, 9.824820518493652, 0.11767043173313141, 2.2888450622558594, -1.1307275295257568, 2.5495128631591797, -0.3882477879524231, -0.701171875, -0.27685546875, -0.62646484375, 0, 
185, 714064980, 0.372345507144928, 0.5313955545425415, -0.30514177680015564, 0.6970410346984863, 0.9999999403953552, -0.00017591286450624466, 0.00018672458827495575, -0.00007383991032838821, 0.08221137523651123, 0.0014474987983703613, 0.01872152090072632, 9.865396499633789, 0.17398470640182495, 2.2482388019561768, -2.419072151184082, 2.5677502155303955, -1.0154122114181519, -0.70068359375, -0.27587890625, -0.62548828125, 0, 
186, 714073313, 0.3726310133934021, 0.5311588644981384, -0.3052135407924652, 0.697037398815155, 0.9999999403953552, -0.00026207882910966873, 0.00022132135927677155, -0.00008387211710214615, 0.08206868171691895, 0.0015208721160888672, 0.01884239912033081, 9.84814167022705, 0.18273502588272095, 2.263307571411133, -3.603987455368042, 3.0435092449188232, -1.1533706188201904, -0.695556640625, -0.27490234375, -0.62890625, 0, 
187, 714081646, 0.3730229437351227, 0.5308709144592285, -0.3053514063358307, 0.6969869136810303, 0.9999998807907104, -0.00034040212631225586, 0.00023430399596691132, -0.00009673088788986206, 0.08120030164718628, 0.0012920498847961426, 0.01904463768005371, 9.743877410888672, 0.15521545708179474, 2.287766456604004, -4.6810526847839355, 3.2220406532287598, -1.3301984071731567, -0.698486328125, -0.2724609375, -0.6279296875, 0, 
188, 714089979, 0.3733951449394226, 0.5305991172790527, -0.3055269122123718, 0.6969176530838013, 0.9999998807907104, -0.00041333120316267014, 0.00019881315529346466, -0.00010287109762430191, 0.08002907037734985, 0.0005397796630859375, 0.019390761852264404, 9.603428840637207, 0.06480077654123306, 2.328812837600708, -5.683938980102539, 2.7339866161346436, -1.4146357774734497, -0.6962890625, -0.2734375, -0.62646484375, 0, 
189, 714098312, 0.37390634417533875, 0.5302948951721191, -0.3058118522167206, 0.6967501044273376, 0.9999998807907104, -0.0004505841061472893, 0.000164669007062912, -0.00010970514267683029, 0.079234778881073, -0.0004239082336425781, 0.01927739381790161, 9.508184432983398, -0.05087067186832428, 2.3148984909057617, -6.196223735809326, 2.2644519805908203, -1.5086143016815186, -0.696044921875, -0.271484375, -0.630859375, 0, 
190, 714106645, 0.3742939531803131, 0.5300583839416504, -0.3060484230518341, 0.6966181993484497, 0.9999998807907104, -0.00046979915350675583, 0.00012282468378543854, -0.00011525209993124008, 0.07891654968261719, -0.001351475715637207, 0.019214928150177002, 9.470110893249512, -0.1621759980916977, 2.3069238662719727, -6.460460662841797, 1.689028263092041, -1.5848935842514038, -0.697021484375, -0.27294921875, -0.63525390625, 0, 
191, 714114978, 0.37481361627578735, 0.529802143573761, -0.3063603639602661, 0.6963964700698853, 0.9999998807907104, -0.00047882087528705597, 0.00009684544056653976, -0.000134224072098732, 0.0786733627319336, -0.00176239013671875, 0.019110500812530518, 9.440978050231934, -0.21131880581378937, 2.294201612472534, -6.5845232009887695, 1.3317736387252808, -1.845787525177002, -0.695068359375, -0.27392578125, -0.6298828125, 0, 
192, 714123311, 0.3752177357673645, 0.5296081900596619, -0.3066141605377197, 0.6962146759033203, 0.9999998807907104, -0.0004888521507382393, 0.0000653490424156189, -0.00014918018132448196, 0.07849723100662231, -0.0019716620445251465, 0.01905524730682373, 9.419928550720215, -0.23631849884986877, 2.2872262001037598, -6.722469329833984, 0.8986499309539795, -2.051456928253174, -0.697998046875, -0.27099609375, -0.63330078125, 0, 
193, 714131644, 0.37570899724960327, 0.5294367074966431, -0.3069027364253998, 0.6959528923034668, 0.9999998807907104, -0.0004926081746816635, 0.000020707957446575165, -0.00018385425209999084, 0.07843613624572754, -0.0018985271453857422, 0.019244670867919922, 9.41270637512207, -0.22725801169872284, 2.309532880783081, -6.774120330810547, 0.2847663164138794, -2.5282788276672363, -0.700927734375, -0.26953125, -0.63134765625, 0, 
194, 714139977, 0.3761347234249115, 0.5293114185333252, -0.3071645200252533, 0.6957027912139893, 0.9999998807907104, -0.0004999386146664619, -0.000014978460967540741, -0.00020629074424505234, 0.0791284441947937, -0.0016225576400756836, 0.01897662878036499, 9.495868682861328, -0.1938793659210205, 2.2770426273345947, -6.874924659729004, -0.20597685873508453, -2.8368146419525146, -0.694580078125, -0.2724609375, -0.630859375, 0, 
195, 714148310, 0.3766898214817047, 0.5291755795478821, -0.3074988126754761, 0.6953579187393188, 0.9999998211860657, -0.0005174661055207253, -0.00004594679921865463, -0.0002322634682059288, 0.07977962493896484, -0.0011973977088928223, 0.01891273260116577, 9.574075698852539, -0.14263108372688293, 2.2690980434417725, -7.115954875946045, -0.6318392157554626, -3.1939799785614014, -0.692138671875, -0.270263671875, -0.63134765625, 0, 
196, 714156643, 0.37715014815330505, 0.5290848612785339, -0.3077794313430786, 0.695053219795227, 0.9999998211860657, -0.0005346089601516724, -0.00006452575325965881, -0.0002512820065021515, 0.08047974109649658, -0.0007070302963256836, 0.019392311573028564, 9.658127784729004, -0.08364898711442947, 2.326493263244629, -7.351694583892822, -0.8873282670974731, -3.4555137157440186, -0.695556640625, -0.27294921875, -0.6357421875, 0, 
197, 714164976, 0.3777863085269928, 0.5289512276649475, -0.3081733286380768, 0.694634735584259, 0.9999998211860657, -0.0005667749792337418, -0.00008341483771800995, -0.0002699289470911026, 0.08074456453323364, -0.0006033778190612793, 0.019836068153381348, 9.689945220947266, -0.07118480652570724, 2.3796026706695557, -7.794027805328369, -1.1470823287963867, -3.7119383811950684, -0.697509765625, -0.26806640625, -0.63232421875, 0, 
198, 714173309, 0.37826573848724365, 0.5288759469985962, -0.30850499868392944, 0.6942838430404663, 0.9999997615814209, -0.0005876859650015831, -0.00011298339813947678, -0.0002594823017716408, 0.08093982934951782, -0.00022017955780029297, 0.020361006259918213, 9.713443756103516, -0.02535891905426979, 2.4423270225524902, -8.081585884094238, -1.5536953210830688, -3.5682806968688965, -0.694580078125, -0.2744140625, -0.634765625, 0, 
199, 714181642, 0.3788680136203766, 0.5287814140319824, -0.3089137375354767, 0.6938456296920776, 0.9999997615814209, -0.000606500543653965, -0.00013380777090787888, -0.0002705072984099388, 0.08081620931625366, -0.0005315542221069336, 0.020488858222961426, 9.698670387268066, -0.06268584728240967, 2.4574594497680664, -8.340316772460938, -1.8400629758834839, -3.719891309738159, -0.694091796875, -0.27001953125, -0.63134765625, 0, 
200, 714189975, 0.37934041023254395, 0.5287370085716248, -0.3092677593231201, 0.6934635639190674, 0.9999997615814209, -0.0005965027958154678, -0.00016159936785697937, -0.0002638474106788635, 0.08049631118774414, -0.000819087028503418, 0.020780622959136963, 9.660367012023926, -0.09724335372447968, 2.492171049118042, -8.202832221984863, -2.2222399711608887, -3.6283082962036133, -0.696044921875, -0.2705078125, -0.630859375, 0, 
201, 714198308, 0.3798678517341614, 0.5286988615989685, -0.3096275329589844, 0.6930431127548218, 0.9999997615814209, -0.0005818773061037064, -0.00016517378389835358, -0.00027228519320487976, 0.08011972904205322, -0.0017390251159667969, 0.02082306146621704, 9.615229606628418, -0.20750856399536133, 2.4971303939819336, -8.001708984375, -2.2713940143585205, -3.7443408966064453, -0.693603515625, -0.26708984375, -0.638671875, 0, 
202, 714206641, 0.38032281398773193, 0.5286751985549927, -0.30993950366973877, 0.6926721334457397, 0.9999998211860657, -0.0005459412932395935, -0.00015946663916110992, -0.0002758689224720001, 0.08002525568008423, -0.0023792386054992676, 0.021237432956695557, 9.60388469696045, -0.2843002676963806, 2.5469577312469482, -7.507532119750977, -2.1929116249084473, -3.79362154006958, -0.695556640625, -0.2666015625, -0.63720703125, 0, 
203, 714214974, 0.38084208965301514, 0.5286310911178589, -0.3102666437625885, 0.6922741532325745, 0.9999998211860657, -0.0005054529756307602, -0.00014154426753520966, -0.0002611130475997925, 0.07977908849716187, -0.002891838550567627, 0.021038711071014404, 9.57433795928955, -0.3457605242729187, 2.5231540203094482, -6.950757026672363, -1.9464517831802368, -3.5907065868377686, -0.691162109375, -0.268798828125, -0.63427734375, 0, 
204, 714223307, 0.38121524453163147, 0.5286129713058472, -0.3105301558971405, 0.6919645071029663, 0.9999998807907104, -0.00044764019548892975, -0.00013783201575279236, -0.00022311508655548096, 0.0796319842338562, -0.003088057041168213, 0.02147608995437622, 9.556654930114746, -0.3696061074733734, 2.575756072998047, -6.1557416915893555, -1.8954020738601685, -3.0681755542755127, -0.698974609375, -0.26806640625, -0.63330078125, 0, 
205, 714231640, 0.381683886051178, 0.528560996055603, -0.3108700215816498, 0.691592812538147, 0.9999998807907104, -0.0003994591534137726, -0.0001455061137676239, -0.0001866612583398819, 0.07954531908035278, -0.0032505393028259277, 0.021592676639556885, 9.546255111694336, -0.3893573582172394, 2.5897302627563477, -5.49317741394043, -2.0009326934814453, -2.5668792724609375, -0.693603515625, -0.267822265625, -0.63232421875, 0, 
206, 714239973, 0.38195279240608215, 0.5285500884056091, -0.31109535694122314, 0.6913513541221619, 0.9999999403953552, -0.0003406582400202751, -0.0001246267929673195, -0.0001469375565648079, 0.07939201593399048, -0.0038957595825195312, 0.022160232067108154, 9.527811050415039, -0.46702897548675537, 2.6580238342285156, -4.684575080871582, -1.7138102054595947, -2.0206174850463867, -0.696044921875, -0.2705078125, -0.63671875, 0, 
207, 714248306, 0.3822390139102936, 0.5285431742668152, -0.31132930517196655, 0.6910930871963501, 0.9999999403953552, -0.0002767350524663925, -0.0001317579299211502, -0.00011459551751613617, 0.07921290397644043, -0.004167139530181885, 0.022540628910064697, 9.506388664245605, -0.49969717860221863, 2.703435182571411, -3.805532693862915, -1.8118741512298584, -1.575864553451538, -0.696533203125, -0.26611328125, -0.63427734375, 0, 
208, 714256639, 0.38239625096321106, 0.5285658240318298, -0.31149494647979736, 0.6909141540527344, 0.9999999403953552, -0.00020735710859298706, -0.0001267027109861374, -0.00008763745427131653, 0.07917016744613647, -0.004419505596160889, 0.022552788257598877, 9.501147270202637, -0.5301191210746765, 2.7052693367004395, -2.8514792919158936, -1.7423572540283203, -1.2051498889923096, -0.695068359375, -0.265625, -0.63623046875, 0, 
209, 714264972, 0.382615327835083, 0.5285646319389343, -0.3116702735424042, 0.6907146573066711, 1, -0.0001358669251203537, -0.00010720454156398773, -0.00007035396993160248, 0.07958948612213135, -0.0051628947257995605, 0.022022783756256104, 9.551399230957031, -0.6193048357963562, 2.6418936252593994, -1.8683792352676392, -1.4742273092269897, -0.9674752950668335, -0.697021484375, -0.2685546875, -0.63330078125, 0, 
210, 714273305, 0.3826870620250702, 0.5285812020301819, -0.31172242760658264, 0.6906387209892273, 1, -0.00005346350371837616, -0.000051254406571388245, -0.00004710070788860321, 0.07992464303970337, -0.005370080471038818, 0.021487057209014893, 9.591340065002441, -0.6444354057312012, 2.578549861907959, -0.7352054119110107, -0.7048268914222717, -0.6477071642875671, -0.694580078125, -0.26708984375, -0.6357421875, 0, 
211, 714281638, 0.3827798068523407, 0.5285629034042358, -0.31172963976860046, 0.6905979514122009, 1, 0.000016226433217525482, 0.000013097189366817474, -0.000029129907488822937, 0.08099836111068726, -0.005037188529968262, 0.021069645881652832, 9.720191955566406, -0.6044866442680359, 2.5284583568573, 0.22313840687274933, 0.1801064908504486, -0.4005810022354126, -0.696533203125, -0.26513671875, -0.63525390625, 0, 
212, 714289971, 0.3828107714653015, 0.5284921526908875, -0.3116799294948578, 0.690657377243042, 1, 0.00004780758172273636, 0.00010674353688955307, 0.000006700865924358368, 0.08141201734542847, -0.004040420055389404, 0.02140367031097412, 9.769832611083984, -0.4848697781562805, 2.568542957305908, 0.6574277281761169, 1.4678876399993896, 0.09214720129966736, -0.697021484375, -0.26806640625, -0.63427734375, 0, 
213, 714298304, 0.38300928473472595, 0.5283028483390808, -0.311737060546875, 0.6906663775444031, 1, 0.00004142150282859802, 0.00016557052731513977, 0.00003447197377681732, 0.0826001763343811, -0.002955317497253418, 0.021625220775604248, 9.911983489990234, -0.35488268733024597, 2.5967581272125244, 0.5696093440055847, 2.2768492698669434, 0.4740426242351532, -0.693115234375, -0.267578125, -0.63720703125, 0, 
214, 714306637, 0.3830452263355255, 0.5281124114990234, -0.3117061257362366, 0.6908060908317566, 1, 0.000011729076504707336, 0.0002261679619550705, 0.00008123740553855896, 0.08297723531723022, -0.0018478631973266602, 0.02183014154434204, 9.957036972045898, -0.22255364060401917, 2.6220428943634033, 0.16129283607006073, 3.1101572513580322, 1.117139220237732, -0.693115234375, -0.266357421875, -0.634765625, 0, 
215, 714314970, 0.3831954002380371, 0.5278435349464417, -0.3117798864841461, 0.6908950805664062, 0.9999999403953552, -0.000022044405341148376, 0.00024266820400953293, 0.00011193286627531052, 0.08276283740997314, -0.001276552677154541, 0.021934986114501953, 9.93139362335205, -0.15416209399700165, 2.63429856300354, -0.3031444549560547, 3.3370606899261475, 1.5392489433288574, -0.692138671875, -0.266357421875, -0.6357421875, 0, 
216, 714323303, 0.38327756524086, 0.5275582075119019, -0.31181883811950684, 0.6910499930381775, 0.9999999403953552, -0.00009165145456790924, 0.00028741639107465744, 0.00012194830924272537, 0.08307760953903198, -0.00090789794921875, 0.021768629550933838, 9.968851089477539, -0.11059045791625977, 2.6155548095703125, -1.2603485584259033, 3.9524176120758057, 1.6769769191741943, -0.696044921875, -0.26611328125, -0.6357421875, 0, 
217, 714331636, 0.38349074125289917, 0.5272030830383301, -0.3119615614414215, 0.691137969493866, 0.9999999403953552, -0.00014320015907287598, 0.0002942187711596489, 0.00013033021241426468, 0.08285492658615112, -0.0006721615791320801, 0.021644651889801025, 9.942245483398438, -0.08226504921913147, 2.6002626419067383, -1.9692225456237793, 4.045960903167725, 1.7922409772872925, -0.696044921875, -0.26708984375, -0.63623046875, 0, 
218, 714339969, 0.3836411237716675, 0.5268783569335938, -0.3120534121990204, 0.691260576248169, 0.9999999403953552, -0.00018863007426261902, 0.00029841531068086624, 0.00010282639414072037, 0.08259612321853638, -0.0007888078689575195, 0.02161926031112671, 9.911066055297852, -0.09632393717765808, 2.5976545810699463, -2.5939533710479736, 4.103669166564941, 1.4140208959579468, -0.693115234375, -0.26611328125, -0.63818359375, 0, 
219, 714348302, 0.38387084007263184, 0.5265280604362488, -0.31219184398651123, 0.6913377642631531, 0.9999999403953552, -0.00023827143013477325, 0.00029419176280498505, 0.0000899285078048706, 0.08209747076034546, -0.0006527900695800781, 0.021697402000427246, 9.851327896118164, -0.07982081174850464, 2.606626033782959, -3.2765989303588867, 4.045589447021484, 1.2366552352905273, -0.692626953125, -0.264892578125, -0.63720703125, 0, 
220, 714356635, 0.3840971887111664, 0.5261802673339844, -0.3123321235179901, 0.6914134621620178, 0.9999999403953552, -0.0002849046140909195, 0.0002948641777038574, 0.00006541050970554352, 0.081393301486969, -0.0009155869483947754, 0.021430015563964844, 9.766791343688965, -0.11129800230264664, 2.5746591091156006, -3.917876720428467, 4.054836273193359, 0.8994951844215393, -0.691162109375, -0.263916015625, -0.64013671875, 0, 
221, 714364968, 0.38443896174430847, 0.5257937908172607, -0.31249645352363586, 0.691443145275116, 0.9999998807907104, -0.00031453557312488556, 0.00031772349029779434, 0.00002889242023229599, 0.08091843128204346, -0.0011900663375854492, 0.021481990814208984, 9.709744453430176, -0.1439482867717743, 2.581101417541504, -4.325347900390625, 4.369186878204346, 0.39731526374816895, -0.694091796875, -0.2646484375, -0.640625, 0, 
222, 714373301, 0.38475501537323, 0.525416374206543, -0.312600702047348, 0.69150710105896, 0.9999998807907104, -0.0003220178186893463, 0.0003508785739541054, -0.00001080334186553955, 0.08071482181549072, -0.0015927553176879883, 0.021111130714416504, 9.685233116149902, -0.19188620150089264, 2.536942958831787, -4.4282402992248535, 4.825119972229004, -0.14856256544589996, -0.692626953125, -0.26611328125, -0.6396484375, 0, 
223, 714381634, 0.3851674795150757, 0.5250182151794434, -0.3127010464668274, 0.6915345788002014, 0.9999998807907104, -0.0003182683140039444, 0.0003710733726620674, -0.00005052424967288971, 0.08001524209976196, -0.0014821887016296387, 0.021455049514770508, 9.601277351379395, -0.178199902176857, 2.578169822692871, -4.376678943634033, 5.102829456329346, -0.6947861313819885, -0.691162109375, -0.263427734375, -0.642578125, 0, 
224, 714389967, 0.3855213224887848, 0.524660587310791, -0.3127521574497223, 0.6915857195854187, 0.9999998807907104, -0.0003008004277944565, 0.0003628907725214958, -0.00007573515176773071, 0.07939845323562622, -0.0018058419227600098, 0.02208191156387329, 9.527205467224121, -0.2167893797159195, 2.6534838676452637, -4.136467933654785, 4.9903059005737305, -1.04147469997406, -0.69091796875, -0.26416015625, -0.646484375, 0, 
225, 714398300, 0.385969877243042, 0.5242903828620911, -0.31282609701156616, 0.6915829181671143, 0.9999998807907104, -0.0002998802810907364, 0.0003561442717909813, -0.00010441988706588745, 0.07879692316055298, -0.0021122097969055176, 0.022584140300750732, 9.455024719238281, -0.25329312682151794, 2.7136518955230713, -4.123814582824707, 4.897531509399414, -1.435934066772461, -0.69091796875, -0.264892578125, -0.64501953125, 0, 
226, 714406633, 0.386356920003891, 0.5239871740341187, -0.3128654956817627, 0.69157874584198, 0.9999998807907104, -0.0003060493618249893, 0.00031113531440496445, -0.0001430157572031021, 0.07832151651382446, -0.0022072792053222656, 0.022745907306671143, 9.398154258728027, -0.2643809914588928, 2.7324297428131104, -4.208649158477783, 4.278588771820068, -1.9666863679885864, -0.690673828125, -0.264404296875, -0.64404296875, 0, 
227, 714414966, 0.38680389523506165, 0.5237089991569519, -0.3129256069660187, 0.691512405872345, 0.9999998807907104, -0.00030270032584667206, 0.0002630213275551796, -0.00017134472727775574, 0.07839637994766235, -0.002366304397583008, 0.022948026657104492, 9.407305717468262, -0.2832363247871399, 2.7561190128326416, -4.162595272064209, 3.616948127746582, -2.3562533855438232, -0.689453125, -0.262451171875, -0.6455078125, 0, 
228, 714423299, 0.3871861398220062, 0.5234991908073425, -0.3129562735557556, 0.6914435029029846, 0.9999999403953552, -0.0002809865400195122, 0.0002144239842891693, -0.00019822362810373306, 0.07921582460403442, -0.0020194649696350098, 0.022620797157287598, 9.505696296691895, -0.2411244660615921, 2.7167491912841797, -3.863997220993042, 2.9486594200134277, -2.7258799076080322, -0.6875, -0.264404296875, -0.646484375, 0, 
229, 714431632, 0.387693852186203, 0.5232629776000977, -0.3130459487438202, 0.6912971138954163, 0.9999999403953552, -0.00028109364211559296, 0.00019475817680358887, -0.0002202950417995453, 0.07945388555526733, -0.0017738938331604004, 0.022835254669189453, 9.534320831298828, -0.21143853664398193, 2.7422821521759033, -3.8654699325561523, 2.678224563598633, -3.029395818710327, -0.689453125, -0.263427734375, -0.64501953125, 0, 
230, 714439965, 0.3880746364593506, 0.5230957269668579, -0.3130612373352051, 0.6912030577659607, 0.9999999403953552, -0.0002605859190225601, 0.0001772809773683548, -0.0002281535416841507, 0.0797843337059021, -0.0017004609107971191, 0.02237778902053833, 9.574078559875488, -0.202602356672287, 2.6870601177215576, -3.5834574699401855, 2.4378862380981445, -3.1374621391296387, -0.68798828125, -0.261474609375, -0.646484375, 0, 
231, 714448298, 0.3884994387626648, 0.5229126811027527, -0.31308713555336, 0.6910914182662964, 0.9999999403953552, -0.00023391935974359512, 0.00017522647976875305, -0.00021842774003744125, 0.08009558916091919, -0.0019121170043945312, 0.022103607654571533, 9.611483573913574, -0.228139266371727, 2.6539993286132812, -3.2167510986328125, 2.4096336364746094, -3.0037174224853516, -0.6884765625, -0.263916015625, -0.64697265625, 0, 
232, 714456631, 0.38883891701698303, 0.5227530598640442, -0.31305423378944397, 0.6910361051559448, 0.9999999403953552, -0.0001897849142551422, 0.00019795075058937073, -0.00021186284720897675, 0.08095580339431763, -0.003072798252105713, 0.022374212741851807, 9.71463394165039, -0.367213636636734, 2.6868526935577393, -2.6098344326019287, 2.7221274375915527, -2.913440227508545, -0.68603515625, -0.263427734375, -0.64892578125, 0, 
233, 714464964, 0.3891804814338684, 0.5225774049758911, -0.31296977400779724, 0.6910147070884705, 0.9999999403953552, -0.0001256745308637619, 0.0002341708168387413, -0.00019682012498378754, 0.08173811435699463, -0.004306495189666748, 0.022725045680999756, 9.808379173278809, -0.515069842338562, 2.7295475006103516, -1.7282180786132812, 3.2202091217041016, -2.7065794467926025, -0.6884765625, -0.263916015625, -0.6474609375, 0, 
234, 714473297, 0.38946136832237244, 0.5224166512489319, -0.312825083732605, 0.6910434365272522, 0.9999999403953552, -0.000055830925703048706, 0.000267799012362957, -0.00019663944840431213, 0.08149290084838867, -0.0045928955078125, 0.023312807083129883, 9.778864860534668, -0.5493138432502747, 2.8003668785095215, -0.7677611112594604, 3.6826484203338623, -2.704094886779785, -0.6845703125, -0.262939453125, -0.64892578125, 0, 
235, 714481630, 0.389788419008255, 0.5222333669662476, -0.31265437602996826, 0.6910749673843384, 0.9999999403953552, -0.000018559396266937256, 0.0002945931628346443, -0.00020389817655086517, 0.08137232065200806, -0.004759788513183594, 0.023433148860931396, 9.764408111572266, -0.569401741027832, 2.814744710922241, -0.2552202343940735, 4.051109313964844, -2.8039135932922363, -0.68701171875, -0.263427734375, -0.64453125, 0, 
236, 714489963, 0.3900396227836609, 0.5220963358879089, -0.3124465346336365, 0.6911307573318481, 0.9999999403953552, 0.000021298415958881378, 0.00028086546808481216, -0.00020585395395755768, 0.0810929536819458, -0.003787994384765625, 0.024142980575561523, 9.730836868286133, -0.4525551199913025, 2.8999595642089844, 0.29288598895072937, 3.862332344055176, -2.830808401107788, -0.6865234375, -0.264892578125, -0.6494140625, 0, 
237, 714498296, 0.39030998945236206, 0.5219501256942749, -0.3122346103191376, 0.6911843419075012, 0.9999999403953552, 0.000018776394426822662, 0.00027838442474603653, -0.00020418502390384674, 0.08091670274734497, -0.0026125311851501465, 0.02350693941116333, 9.709672927856445, -0.31148627400398254, 2.8236467838287354, 0.25820431113243103, 3.828213930130005, -2.8078582286834717, -0.6845703125, -0.266357421875, -0.655029296875, 0, 
238, 714506629, 0.3905188739299774, 0.5218569040298462, -0.3120049238204956, 0.6912403702735901, 0.9999999403953552, 0.0000760350376367569, 0.0002459939569234848, -0.00020132027566432953, 0.08004629611968994, -0.0022249221801757812, 0.024534285068511963, 9.60519027709961, -0.2645934224128723, 2.9468908309936523, 1.0455987453460693, 3.382795572280884, -2.7684638500213623, -0.68310546875, -0.262939453125, -0.64501953125, 0, 
239, 714514962, 0.3908251225948334, 0.521750807762146, -0.31185275316238403, 0.691216230392456, 0.9999999403953552, 0.00009004678577184677, 0.00019201543182134628, -0.00020413845777511597, 0.07945877313613892, -0.002124011516571045, 0.024248123168945312, 9.534910202026367, -0.2526126503944397, 2.9118034839630127, 1.2382817268371582, 2.640507459640503, -2.807217836380005, -0.68603515625, -0.265869140625, -0.64794921875, 0, 
240, 714523295, 0.3909997045993805, 0.5217228531837463, -0.31164419651031494, 0.6912326812744141, 0.9999999403953552, 0.00009249430149793625, 0.00016125384718179703, -0.00020245090126991272, 0.07961583137512207, -0.002271890640258789, 0.02431255578994751, 9.553788185119629, -0.27002909779548645, 2.919476270675659, 1.2719388008117676, 2.2174882888793945, -2.784010648727417, -0.681640625, -0.265869140625, -0.650634765625, 0, 
241, 714531628, 0.39120128750801086, 0.5217012166976929, -0.31143638491630554, 0.6912285089492798, 0.9999999403953552, 0.0000741938129067421, 0.00013385619968175888, -0.00022029876708984375, 0.07973271608352661, -0.0026540160179138184, 0.023687243461608887, 9.568050384521484, -0.316573828458786, 2.843663215637207, 1.0202789306640625, 1.840728521347046, -3.029446840286255, -0.6845703125, -0.266357421875, -0.652099609375, 0, 
242, 714539961, 0.3914170563220978, 0.5216807126998901, -0.311230331659317, 0.6912146806716919, 0.9999999403953552, 0.00006330665200948715, 0.00015192944556474686, -0.00024355575442314148, 0.0803365707397461, -0.0024971365928649902, 0.023973047733306885, 9.640397071838379, -0.2970503568649292, 2.878415822982788, 0.8705637454986572, 2.089263439178467, -3.3492658138275146, -0.68408203125, -0.264892578125, -0.653564453125, 0, 
243, 714548294, 0.3917173743247986, 0.5216031670570374, -0.3110205829143524, 0.691197395324707, 0.9999999403953552, 0.00007132161408662796, 0.00019283872097730637, -0.00025764480233192444, 0.08013403415679932, -0.001993119716644287, 0.024251103401184082, 9.615920066833496, -0.23623788356781006, 2.912301778793335, 0.9807818531990051, 2.6518290042877197, -3.5430126190185547, -0.681640625, -0.265869140625, -0.652099609375, 0, 
244, 714556627, 0.3919832706451416, 0.521511971950531, -0.31076306104660034, 0.6912313103675842, 0.9999999403953552, 0.000059983693063259125, 0.0002615293487906456, -0.0002643261104822159, 0.08045440912246704, -0.001297295093536377, 0.02403569221496582, 9.654163360595703, -0.15281930565834045, 2.8870596885681152, 0.8248679637908936, 3.596430540084839, -3.634890079498291, -0.6845703125, -0.267333984375, -0.6513671875, 0, 
245, 714564960, 0.3924328684806824, 0.5212901830673218, -0.31055501103401184, 0.6912370324134827, 0.9999998807907104, 0.000021952204406261444, 0.00034600216895341873, -0.00028505921363830566, 0.08019936084747314, -0.0004489421844482422, 0.023198246955871582, 9.62332534790039, -0.050971079617738724, 2.7873499393463135, 0.30187660455703735, 4.758062839508057, -3.9200026988983154, -0.677734375, -0.269775390625, -0.653076171875, 0, 
246, 714573293, 0.3928036689758301, 0.5210914611816406, -0.31030330061912537, 0.6912893652915955, 0.9999998807907104, -0.000034868717193603516, 0.00037563685327768326, -0.0002930276095867157, 0.08006447553634644, -0.0004989504814147949, 0.02426046133041382, 9.606996536254883, -0.05704091489315033, 2.9151406288146973, -0.4794984459877014, 5.165584087371826, -4.0295796394348145, -0.681640625, -0.268310546875, -0.655517578125, 0, 
247, 714581626, 0.3932511508464813, 0.5208557844161987, -0.3101215660572052, 0.6912940144538879, 0.9999998807907104, -0.0001030508428812027, 0.00034489575773477554, -0.00029306113719940186, 0.08011758327484131, -0.0009106993675231934, 0.024478137493133545, 9.613544464111328, -0.10685329884290695, 2.9406938552856445, -1.417107343673706, 4.742846488952637, -4.030040740966797, -0.67822265625, -0.269287109375, -0.655517578125, 0, 
248, 714589959, 0.393676221370697, 0.5206487774848938, -0.3099820017814636, 0.6912707090377808, 0.9999998807907104, -0.0001667756587266922, 0.00031457003206014633, -0.0002990551292896271, 0.08016157150268555, -0.0014206767082214355, 0.024294674396514893, 9.618935585021973, -0.16818135976791382, 2.918369770050049, -2.293421983718872, 4.325821876525879, -4.112468242645264, -0.67919921875, -0.268798828125, -0.652587890625, 0, 
249, 714598292, 0.3941590189933777, 0.5203932523727417, -0.3098439872264862, 0.6912499070167542, 0.9999998807907104, -0.00019467994570732117, 0.00033716391772031784, -0.0003050621598958969, 0.08074277639389038, -0.002104818820953369, 0.023977279663085938, 9.68864917755127, -0.2502540051937103, 2.8805246353149414, -2.6771488189697266, 4.636521816253662, -4.19507360458374, -0.6787109375, -0.268798828125, -0.652099609375, 0, 
250, 714606625, 0.39465558528900146, 0.5201336741447449, -0.30967485904693604, 0.69123774766922, 0.9999998211860657, -0.00020058080554008484, 0.00039043743163347244, -0.00034298747777938843, 0.08112221956253052, -0.0027086734771728516, 0.023950159549713135, 9.73408317565918, -0.3224012553691864, 2.8777220249176025, -2.7582948207855225, 5.369115829467773, -4.716606140136719, -0.677734375, -0.268310546875, -0.654052734375, 0, 
251, 714614958, 0.39525094628334045, 0.5197942852973938, -0.30944257974624634, 0.6912568807601929, 0.9999997615814209, -0.00019572116434574127, 0.0004858681932091713, -0.0003873072564601898, 0.08051055669784546, -0.0021398067474365234, 0.024152100086212158, 9.66036605834961, -0.25366631150245667, 2.9029338359832764, -2.691466808319092, 6.6814351081848145, -5.326070308685303, -0.6748046875, -0.269287109375, -0.655029296875, 0, 
252, 714623291, 0.39584505558013916, 0.5194356441497803, -0.30918455123901367, 0.6913020014762878, 0.9999997615814209, -0.00021082907915115356, 0.0005540354177355766, -0.0004031732678413391, 0.07965224981307983, -0.0019165277481079102, 0.024092912673950195, 9.557162284851074, -0.22679542005062103, 2.896437883377075, -2.899224042892456, 7.618839740753174, -5.544252872467041, -0.67724609375, -0.269287109375, -0.656494140625, 0, 
253, 714631624, 0.3965320587158203, 0.5189899206161499, -0.30894598364830017, 0.6913496255874634, 0.9999997019767761, -0.0002487674355506897, 0.0006029782816767693, -0.0004041362553834915, 0.07873541116714478, -0.0016276240348815918, 0.024606287479400635, 9.44690227508545, -0.1922013759613037, 2.9585907459259033, -3.4209351539611816, 8.291879653930664, -5.5574951171875, -0.67724609375, -0.269287109375, -0.658447265625, 0, 
254, 714639957, 0.3971882462501526, 0.5185373425483704, -0.30870333313941956, 0.6914210319519043, 0.9999997019767761, -0.00028273463249206543, 0.0006454857066273689, -0.0003987383097410202, 0.07881081104278564, -0.0018504858016967773, 0.024825990200042725, 9.45583724975586, -0.2191389799118042, 2.9852802753448486, -3.8880362510681152, 8.876421928405762, -5.4832658767700195, -0.6748046875, -0.267822265625, -0.657958984375, 0, 
255, 714648290, 0.39791226387023926, 0.5180220603942871, -0.30848953127861023, 0.6914864778518677, 0.9999996423721313, -0.0003156997263431549, 0.0006602061912417412, -0.0003909934312105179, 0.07778286933898926, -0.0021036863327026367, 0.025168538093566895, 9.332428932189941, -0.24976862967014313, 3.0264015197753906, -4.341357707977295, 9.078851699829102, -5.3767619132995605, -0.67431640625, -0.269775390625, -0.661376953125, 0, 
256, 714656623, 0.3986121416091919, 0.5175241231918335, -0.30829042196273804, 0.6915450692176819, 0.9999996423721313, -0.00035723671317100525, 0.0006662989035248756, -0.0003972817212343216, 0.07729262113571167, -0.002077162265777588, 0.02457362413406372, 9.27365493774414, -0.24668969213962555, 2.954925775527954, -4.91255521774292, 9.162635803222656, -5.463235855102539, -0.67236328125, -0.267822265625, -0.661865234375, 0, 
257, 714664956, 0.39936935901641846, 0.5169582962989807, -0.30813220143318176, 0.6916017532348633, 0.9999996423721313, -0.0003971811383962631, 0.0006757806986570358, -0.0003748573362827301, 0.07633155584335327, -0.0018654465675354004, 0.024623334407806396, 9.15826416015625, -0.22163283824920654, 2.960939645767212, -5.461852073669434, 9.293024063110352, -5.154865264892578, -0.66943359375, -0.270263671875, -0.661865234375, 0, 
258, 714673289, 0.4001080095767975, 0.516443133354187, -0.3080039620399475, 0.6916168928146362, 0.9999996423721313, -0.00044623762369155884, 0.0006393706426024437, -0.00039944984018802643, 0.07601845264434814, -0.0018597841262817383, 0.02435213327407837, 9.120780944824219, -0.2208215445280075, 2.928161144256592, -6.136455059051514, 8.792330741882324, -5.493050575256348, -0.67041015625, -0.268798828125, -0.663818359375, 0, 
259, 714681622, 0.4009397327899933, 0.5159152150154114, -0.30790677666664124, 0.6915724873542786, 0.9999995827674866, -0.0005157403647899628, 0.0005935980007052422, -0.000454852357506752, 0.07604855298995972, -0.0020952820777893066, 0.02451092004776001, 9.124540328979492, -0.2487810105085373, 2.946774959564209, -7.09222412109375, 8.162886619567871, -6.254920482635498, -0.666748046875, -0.26904296875, -0.667724609375, 0, 
260, 714689955, 0.40179795026779175, 0.5154853463172913, -0.3078523278236389, 0.6914191842079163, 0.9999995827674866, -0.0005764365196228027, 0.0005006035789847374, -0.0005375891923904419, 0.07647275924682617, -0.002583026885986328, 0.025481700897216797, 9.175743103027344, -0.3068336844444275, 3.062303304672241, -7.926889896392822, 6.88407039642334, -7.392679214477539, -0.668212890625, -0.268310546875, -0.668701171875, 0, 
261, 714698288, 0.4027843177318573, 0.515064537525177, -0.3078503906726837, 0.6911596059799194, 0.9999995231628418, -0.0006312616169452667, 0.00041490886360406876, -0.0006168745458126068, 0.07794737815856934, -0.003105461597442627, 0.02500063180923462, 9.35304069519043, -0.3687845766544342, 3.0038516521453857, -8.680818557739258, 5.705635070800781, -8.482975006103516, -0.667236328125, -0.26806640625, -0.668701171875, 0, 
262, 714706621, 0.40377816557884216, 0.5146906971931458, -0.30782437324523926, 0.6908697485923767, 0.999999463558197, -0.0006853574886918068, 0.00042174383997917175, -0.0006888033822178841, 0.07997894287109375, -0.0028480887413024902, 0.02437061071395874, 9.596847534179688, -0.3371357321739197, 2.9284398555755615, -9.42471981048584, 5.799626350402832, -9.472105979919434, -0.664306640625, -0.26611328125, -0.669189453125, 0, 
263, 714714954, 0.4049556851387024, 0.5141634345054626, -0.30782538652420044, 0.6905725598335266, 0.9999993443489075, -0.0007538478821516037, 0.0005240114405751228, -0.0007223412394523621, 0.08005362749099731, -0.0017033815383911133, 0.024759888648986816, 9.605401039123535, -0.19969452917575836, 2.9762086868286133, -10.366569519042969, 7.205964088439941, -9.933304786682129, -0.662841796875, -0.26953125, -0.672119140625, 0, 
264, 714723287, 0.4060858190059662, 0.5136500000953674, -0.307805597782135, 0.6902998685836792, 0.9999992251396179, -0.0008104052394628525, 0.0005662832409143448, -0.0007297862321138382, 0.07897359132766724, -0.0005794763565063477, 0.024691760540008545, 9.47557258605957, -0.06499695777893066, 2.968475818634033, -11.144320487976074, 7.787266731262207, -10.035684585571289, -0.662841796875, -0.27001953125, -0.670166015625, 0, 
265, 714731620, 0.40733060240745544, 0.513062059879303, -0.30785059928894043, 0.6899834871292114, 0.9999992251396179, -0.0008526891469955444, 0.0005583958700299263, -0.0007383320480585098, 0.07826817035675049, -0.0003432035446166992, 0.02494347095489502, 9.39091682434082, -0.03681790083646774, 2.9985315799713135, -11.725790977478027, 7.678803443908691, -10.153203964233398, -0.661376953125, -0.2685546875, -0.671630859375, 0, 
266, 714739953, 0.4085153639316559, 0.5125787854194641, -0.3078685402870178, 0.6896342635154724, 0.9999991655349731, -0.0008752439171075821, 0.0005075754597783089, -0.0007883608341217041, 0.07883930206298828, -0.0016736984252929688, 0.025848448276519775, 9.459680557250977, -0.19612717628479004, 3.1065480709075928, -12.035951614379883, 6.979944705963135, -10.84117603302002, -0.661865234375, -0.26904296875, -0.680908203125, 0, 
267, 714748286, 0.4097532629966736, 0.5120852589607239, -0.3078450560569763, 0.6892768144607544, 0.9999991655349731, -0.0008393917232751846, 0.0004971632733941078, -0.000833490863442421, 0.07971453666687012, -0.0034101009368896484, 0.027083933353424072, 9.564854621887207, -0.4040084779262543, 3.254595994949341, -11.542928695678711, 6.836760520935059, -11.461782455444336, -0.660888671875, -0.2705078125, -0.674560546875, 0, 
268, 714756619, 0.4109283685684204, 0.5116469264030457, -0.307710200548172, 0.6889628171920776, 0.9999992251396179, -0.0007352568209171295, 0.0005541769787669182, -0.0008592121303081512, 0.08041161298751831, -0.004005551338195801, 0.0291898250579834, 9.648255348205566, -0.47499480843544006, 3.50789475440979, -10.110915184020996, 7.620788097381592, -11.815492630004883, -0.657958984375, -0.2705078125, -0.680419921875, 0, 
269, 714764952, 0.4120732843875885, 0.5111655592918396, -0.30740228295326233, 0.6887738108634949, 0.9999992847442627, -0.0005535539239645004, 0.000660366378724575, -0.0008570663630962372, 0.07923728227615356, -0.003939509391784668, 0.031553566455841064, 9.506736755371094, -0.4666549265384674, 3.7926506996154785, -7.612218379974365, 9.0810546875, -11.785982131958008, -0.656494140625, -0.26953125, -0.678466796875, 0, 
270, 714773285, 0.41311001777648926, 0.5107938647270203, -0.30695870518684387, 0.6886264085769653, 0.9999993443489075, -0.0003728829324245453, 0.0006776349619030952, -0.0008737072348594666, 0.07689714431762695, -0.004660665988922119, 0.03200197219848633, 9.225894927978516, -0.5526275634765625, 3.8464765548706055, -5.12771463394165, 9.318522453308105, -12.014820098876953, -0.655517578125, -0.2705078125, -0.676513671875, 0, 
271, 714781618, 0.4141588509082794, 0.5104299783706665, -0.30643293261528015, 0.6885002851486206, 0.9999993443489075, -0.00026218779385089874, 0.0006658090278506279, -0.0009085573256015778, 0.07588165998458862, -0.004952728748321533, 0.03115910291671753, 9.104204177856445, -0.5870398283004761, 3.745164632797241, -3.6054861545562744, 9.155899047851562, -12.494062423706055, -0.656982421875, -0.27294921875, -0.683349609375, 0, 
272, 714789951, 0.41520175337791443, 0.5101380944252014, -0.30583199858665466, 0.6883556842803955, 0.9999992251396179, -0.00023372098803520203, 0.0006909826770424843, -0.0009816419333219528, 0.07545030117034912, -0.003880143165588379, 0.029255568981170654, 9.0524320602417, -0.45759958028793335, 3.5169332027435303, -3.2140233516693115, 9.5020751953125, -13.499088287353516, -0.653076171875, -0.27294921875, -0.683837890625, 0, 
273, 714798284, 0.4163374900817871, 0.5097640156745911, -0.3051674962043762, 0.688241720199585, 0.9999991655349731, -0.00019834190607070923, 0.0007543964311480522, -0.001032935455441475, 0.0770716667175293, -0.0032744407653808594, 0.027858853340148926, 9.246855735778809, -0.3840937912464142, 3.3500688076019287, -2.7275068759918213, 10.374113082885742, -14.204453468322754, -0.652099609375, -0.27587890625, -0.685791015625, 0, 
274, 714806617, 0.4174395501613617, 0.5094112753868103, -0.304386168718338, 0.688181459903717, 0.9999990463256836, -0.00013907067477703094, 0.0008688922971487045, -0.001060526818037033, 0.0786324143409729, -0.003022432327270508, 0.027736663818359375, 9.433741569519043, -0.3531213402748108, 3.336717128753662, -1.9124358892440796, 11.948607444763184, -14.583876609802246, -0.647216796875, -0.2744140625, -0.682373046875, 0, 
275, 714814950, 0.4185430109500885, 0.5089448690414429, -0.30346161127090454, 0.6882645487785339, 0.999998927116394, -0.000031424686312675476, 0.001011616550385952, -0.00105314701795578, 0.07947099208831787, -0.0018763542175292969, 0.027758896350860596, 9.533742904663086, -0.21517640352249146, 3.340895891189575, -0.4321378767490387, 13.911287307739258, -14.482397079467773, -0.646484375, -0.27490234375, -0.687255859375, 0, 
276, 714823283, 0.419624924659729, 0.5084846615791321, -0.30246686935424805, 0.6883837580680847, 0.9999988079071045, 0.000027981586754322052, 0.0011170627549290657, -0.0010476484894752502, 0.07929819822311401, -0.00014662742614746094, 0.028245210647583008, 9.512374877929688, -0.007497590035200119, 3.4002273082733154, 0.38478997349739075, 15.361336708068848, -14.406783103942871, -0.64501953125, -0.27880859375, -0.689208984375, 0, 
277, 714831616, 0.42080703377723694, 0.5078803300857544, -0.3015502691268921, 0.6885103583335876, 0.9999988079071045, -0.0000025779008865356445, 0.0011482937261462212, -0.0010073855519294739, 0.0796821117401123, 0.002965867519378662, 0.027437984943389893, 9.558103561401367, 0.3655049502849579, 3.303628444671631, -0.03545011207461357, 15.79080867767334, -13.853104591369629, -0.640625, -0.280029296875, -0.689453125, 0, 
278, 714839949, 0.42192894220352173, 0.5073076486587524, -0.30061471462249756, 0.6886551976203918, 0.9999988079071045, -0.00007247179746627808, 0.001194617711007595, -0.00100022554397583, 0.07958853244781494, 0.005591094493865967, 0.027125775814056396, 9.546417236328125, 0.6803156733512878, 3.2667319774627686, -0.9965990781784058, 16.427839279174805, -13.754645347595215, -0.64111328125, -0.282470703125, -0.6904296875, 0, 
279, 714848282, 0.42315343022346497, 0.506634533405304, -0.299765408039093, 0.688769519329071, 0.9999988079071045, -0.00014495477080345154, 0.001170882023870945, -0.0010002143681049347, 0.07926571369171143, 0.00690692663192749, 0.02775120735168457, 9.507546424865723, 0.8378628492355347, 3.3414955139160156, -1.993351697921753, 16.101430892944336, -13.75448989868164, -0.63916015625, -0.281005859375, -0.6923828125, 0, 
280, 714856615, 0.4243217408657074, 0.5060464143753052, -0.29893359541893005, 0.6888447403907776, 0.9999988079071045, -0.00019439123570919037, 0.001139889471232891, -0.0010042525827884674, 0.08068746328353882, 0.006667435169219971, 0.025110185146331787, 9.678621292114258, 0.8092943429946899, 3.0245766639709473, -2.6731791496276855, 15.675236701965332, -13.810020446777344, -0.6357421875, -0.284423828125, -0.69580078125, 0, 
281, 714864948, 0.4255281984806061, 0.5053940415382385, -0.2981068789958954, 0.6889376044273376, 0.9999988079071045, -0.0002248026430606842, 0.0011282013729214668, -0.0010096784681081772, 0.08066421747207642, 0.006959736347198486, 0.026234209537506104, 9.67566967010498, 0.8443102240562439, 3.1593942642211914, -3.091383218765259, 15.514510154724121, -13.884635925292969, -0.6357421875, -0.282958984375, -0.701171875, 0, 
282, 714873281, 0.4266988933086395, 0.5048744678497314, -0.2974110543727875, 0.6888951659202576, 0.9999989867210388, -0.00029490143060684204, 0.0009759142994880676, -0.001007620245218277, 0.08079993724822998, 0.007218062877655029, 0.026938259601593018, 9.692343711853027, 0.875024139881134, 3.2424464225769043, -4.055349826812744, 13.420326232910156, -13.856332778930664, -0.63232421875, -0.287353515625, -0.69873046875, 0, 
283, 714881614, 0.42789164185523987, 0.5044218301773071, -0.2968057096004486, 0.6887481808662415, 0.9999991059303284, -0.00031043775379657745, 0.0007745483890175819, -0.001026025041937828, 0.08044558763504028, 0.006322324275970459, 0.02750629186630249, 9.650496482849121, 0.7676346302032471, 3.308641195297241, -4.268997669219971, 10.651235580444336, -14.10942554473877, -0.6318359375, -0.287353515625, -0.69873046875, 0, 
284, 714889947, 0.4289611279964447, 0.5042378306388855, -0.2962164878845215, 0.6884713768959045, 0.9999992251396179, -0.0002433639019727707, 0.0005507944151759148, -0.0010838676244020462, 0.07939624786376953, 0.005528271198272705, 0.028272688388824463, 9.525317192077637, 0.6729952096939087, 3.398311138153076, -3.346628427505493, 7.5742716789245605, -14.9048490524292, -0.62841796875, -0.285888671875, -0.6982421875, 0, 
285, 714898280, 0.4298846125602722, 0.5042869448661804, -0.29554271697998047, 0.6881486773490906, 0.9999992847442627, -0.00013557448983192444, 0.00028405245393514633, -0.001154555007815361, 0.07595700025558472, 0.002960801124572754, 0.03171569108963013, 9.113709449768066, 0.3653067946434021, 3.8086702823638916, -1.8643581867218018, 3.9061591625213623, -15.876911163330078, -0.62744140625, -0.286865234375, -0.701171875, 0, 
286, 714906613, 0.430804044008255, 0.5046114325523376, -0.29492855072021484, 0.6875991821289062, 0.9999992251396179, -0.000012518838047981262, 0.00002900976687669754, -0.0012606922537088394, 0.07909852266311646, 0.002956390380859375, 0.019234955310821533, 9.49168586730957, 0.3666374087333679, 2.308565139770508, -0.17215333878993988, 0.39892902970314026, -17.336463928222656, -0.62451171875, -0.291748046875, -0.69970703125, 0, 
287, 714914946, 0.4317612648010254, 0.5049874782562256, -0.294056236743927, 0.6870959401130676, 0.9999989867210388, 0.00024203769862651825, 0.00006650201976299286, -0.0013890080153942108, 0.0796312689781189, -0.00031554698944091797, 0.03221619129180908, 9.555922508239746, -0.023626452311873436, 3.866741895675659, 3.3283913135528564, 0.9145052433013916, -19.10099983215332, -0.626953125, -0.293701171875, -0.69921875, 0, 
288, 714923279, 0.43255189061164856, 0.5055603981018066, -0.29326319694519043, 0.6865161061286926, 0.9999990463256836, 0.00027368683367967606, -0.00011801905930042267, -0.0013488568365573883, 0.07968753576278687, 0.0004203915596008301, 0.027377784252166748, 9.56319808959961, 0.06424069404602051, 3.2843215465545654, 3.763615369796753, -1.6229438781738281, -18.548858642578125, -0.6240234375, -0.294189453125, -0.7001953125, 0, 
289, 714931612, 0.43315011262893677, 0.5062509179115295, -0.2922804653644562, 0.6860489249229431, 0.9999989867210388, 0.0005055712535977364, -0.00019394978880882263, -0.0013273488730192184, 0.08009356260299683, 0.0003597736358642578, 0.029687702655792236, 9.612237930297852, 0.057742778211832047, 3.560777187347412, 6.952383518218994, -2.6671085357666016, -18.25309181213379, -0.62158203125, -0.296142578125, -0.701171875, 0, 
290, 714939945, 0.4336528182029724, 0.5070915222167969, -0.2912731170654297, 0.6855387091636658, 0.9999988675117493, 0.0007029222324490547, -0.00025840848684310913, -0.001307820901274681, 0.07844364643096924, -0.000518500804901123, 0.028412580490112305, 9.414566993713379, -0.04755542427301407, 3.407259464263916, 9.666263580322266, -3.5535149574279785, -17.984554290771484, -0.6220703125, -0.298583984375, -0.697265625, 0, 
291, 714948278, 0.43401116132736206, 0.5080223679542542, -0.29012081027030945, 0.6851114630699158, 0.9999986886978149, 0.0009046560153365135, -0.00033284910023212433, -0.0012857578694820404, 0.07737553119659424, -0.00010925531387329102, 0.025998294353485107, 9.28648853302002, 0.0017092996276915073, 3.116824150085449, 12.44041633605957, -4.577188491821289, -17.681156158447266, -0.623046875, -0.303466796875, -0.7001953125, 0, 
292, 714956611, 0.4342508018016815, 0.5091336369514465, -0.2889207601547241, 0.6846417784690857, 0.9999985098838806, 0.0010973727330565453, -0.00041655637323856354, -0.0012863855808973312, 0.0773652195930481, 0.0006964802742004395, 0.026290833950042725, 9.285399436950684, 0.0990225225687027, 3.1510519981384277, 15.090570449829102, -5.728292942047119, -17.689786911010742, -0.621337890625, -0.305908203125, -0.69580078125, 0, 
293, 714964944, 0.43440544605255127, 0.5102986693382263, -0.287617564201355, 0.6842249035835266, 0.9999982714653015, 0.0012546917423605919, -0.00048096664249897003, -0.0012790597975254059, 0.07802140712738037, 0.0008515715599060059, 0.025466978549957275, 9.36426830291748, 0.11793593317270279, 3.0515406131744385, 17.253950119018555, -6.614034175872803, -17.589048385620117, -0.622314453125, -0.306396484375, -0.6923828125, 0, 
294, 714973277, 0.434455931186676, 0.5115804672241211, -0.2862885892391205, 0.6837928891181946, 0.999998152256012, 0.0013670166954398155, -0.0005126912146806717, -0.001255406066775322, 0.07819598913192749, 0.0008788704872131348, 0.025671005249023438, 9.385329246520996, 0.12140657007694244, 3.075697422027588, 18.79859733581543, -7.05029821395874, -17.263778686523438, -0.619384765625, -0.30859375, -0.69189453125, 0, 
295, 714981610, 0.43440985679626465, 0.5128652453422546, -0.2849038243293762, 0.6834379434585571, 0.9999980330467224, 0.0014586886391043663, -0.0005538184195756912, -0.0012017730623483658, 0.07711976766586304, 0.0015195012092590332, 0.026351869106292725, 9.256263732910156, 0.19806240499019623, 3.1569576263427734, 20.05922508239746, -7.6158599853515625, -16.526241302490234, -0.622314453125, -0.316162109375, -0.69287109375, 0, 
296, 714989943, 0.43426552414894104, 0.5142896175384521, -0.2835979163646698, 0.683002233505249, 0.9999979734420776, 0.0015119584277272224, -0.000678185373544693, -0.0011525601148605347, 0.07457554340362549, 0.0034494996070861816, 0.02792733907699585, 8.951213836669922, 0.4293678402900696, 3.344696283340454, 20.791767120361328, -9.326098442077637, -15.84948444366455, -0.621826171875, -0.316650390625, -0.69091796875, 0, 
297, 714998276, 0.4340672194957733, 0.5157820582389832, -0.2823632061481476, 0.6825143694877625, 0.9999977946281433, 0.00156401377171278, -0.0008674971759319305, -0.0011158473789691925, 0.07205241918563843, 0.0026477575302124023, 0.025373756885528564, 8.64891242980957, 0.33214041590690613, 3.0369722843170166, 21.507612228393555, -11.929429054260254, -15.344629287719727, -0.620849609375, -0.322021484375, -0.68896484375, 0, 
298, 715006609, 0.4337323009967804, 0.5174964070320129, -0.2812139093875885, 0.6819037795066833, 0.9999975562095642, 0.0015796152874827385, -0.001088365912437439, -0.0010997094213962555, 0.07284516096115112, 0.0042511820793151855, 0.025680184364318848, 8.744551658630371, 0.5246346592903137, 3.0714199542999268, 21.722156524658203, -14.966716766357422, -15.122708320617676, -0.621826171875, -0.323486328125, -0.6865234375, 0, 
299, 715014942, 0.43345388770103455, 0.5192003846168518, -0.2801533341407776, 0.6812214851379395, 0.9999975562095642, 0.0014614900574088097, -0.0012160148471593857, -0.0011358149349689484, 0.07285380363464355, 0.010237455368041992, 0.024149179458618164, 8.744929313659668, 1.2427409887313843, 2.8855512142181396, 20.097749710083008, -16.722084045410156, -15.61921215057373, -0.6201171875, -0.330322265625, -0.683349609375, 0, 
300, 715023275, 0.4331304728984833, 0.5210452675819397, -0.27912288904190063, 0.6804413199424744, 0.9999973177909851, 0.0015016170218586922, -0.001313675194978714, -0.001156046986579895, 0.07327991724014282, 0.003604710102081299, 0.024483978748321533, 8.797281265258789, 0.4471222758293152, 2.926011562347412, 20.649560928344727, -18.06507110595703, -15.897438049316406, -0.623046875, -0.331787109375, -0.681396484375, 0, 
301, 715031608, 0.4327293038368225, 0.5229772925376892, -0.27816155552864075, 0.6796075701713562, 0.999997079372406, 0.001503477804362774, -0.0015297364443540573, -0.0011319052428007126, 0.07294422388076782, 0.002549409866333008, 0.02491319179534912, 8.75786304473877, 0.3203132450580597, 2.975867748260498, 20.675151824951172, -21.036251068115234, -15.56545352935791, -0.623046875, -0.332763671875, -0.676513671875, 0, 
302, 715039941, 0.4322754144668579, 0.5250179767608643, -0.2772449254989624, 0.678696870803833, 0.9999969005584717, 0.0015406860038638115, -0.0016009006649255753, -0.0011190827935934067, 0.07375556230545044, 0.0026285648345947266, 0.021738171577453613, 8.854837417602539, 0.3293806314468384, 2.593996047973633, 21.18682289123535, -22.014867782592773, -15.389124870300293, -0.62451171875, -0.338623046875, -0.677001953125, 0, 
303, 715048274, 0.4318088889122009, 0.5270217061042786, -0.2762926518917084, 0.6778286695480347, 0.9999967813491821, 0.0016147764399647713, -0.0016115065664052963, -0.0010967683047056198, 0.0741039514541626, 0.005650699138641357, 0.02093261480331421, 8.896119117736816, 0.6919137239456177, 2.4965784549713135, 22.20568084716797, -22.160717010498047, -15.082266807556152, -0.62451171875, -0.338623046875, -0.668701171875, 0, 
304, 715056607, 0.43126800656318665, 0.5291475653648376, -0.2753142714500427, 0.6769142150878906, 0.9999966025352478, 0.0016639931127429008, -0.0016583148390054703, -0.001117803156375885, 0.07471752166748047, 0.00746387243270874, 0.020562946796417236, 8.969535827636719, 0.9098148345947266, 2.451291084289551, 22.882488250732422, -22.80440330505371, -15.371528625488281, -0.626708984375, -0.343994140625, -0.667724609375, 0, 
305, 715064940, 0.430730938911438, 0.5312915444374084, -0.2743598520755768, 0.6759637594223022, 0.9999964237213135, 0.0016449009999632835, -0.0017697867006063461, -0.0011404100805521011, 0.07517486810684204, 0.010661125183105469, 0.02200084924697876, 9.024548530578613, 1.294037103652954, 2.6220908164978027, 22.619945526123047, -24.337316513061523, -15.682411193847656, -0.627685546875, -0.345947265625, -0.661376953125, 0, 
306, 715073273, 0.4302009642124176, 0.5335487127304077, -0.27350613474845886, 0.6748685240745544, 0.9999962449073792, 0.0015808483585715294, -0.001893945038318634, -0.0011729151010513306, 0.07583701610565186, 0.010756433010101318, 0.02077507972717285, 9.10399055480957, 1.3054081201553345, 2.4738516807556152, 21.73912239074707, -26.044687271118164, -16.129404067993164, -0.629150390625, -0.354248046875, -0.660400390625, 0, 
307, 715081606, 0.4296957850456238, 0.5357794761657715, -0.2726774513721466, 0.6737573146820068, 0.9999961853027344, 0.0015445156022906303, -0.0019565988332033157, -0.0011829379945993423, 0.07561051845550537, 0.01057291030883789, 0.02047210931777954, 9.07690715789795, 1.283293604850769, 2.437063694000244, 21.23948860168457, -26.90627670288086, -16.267236709594727, -0.629638671875, -0.356689453125, -0.658447265625, 0, 
308, 715089939, 0.42917680740356445, 0.5381227731704712, -0.2719787061214447, 0.672501802444458, 0.9999960064888, 0.0014640269801020622, -0.0021016839891672134, -0.0011896658688783646, 0.0747036337852478, 0.009022772312164307, 0.020035207271575928, 8.968544006347656, 1.0969723463058472, 2.3838560581207275, 20.132648468017578, -28.90142250061035, -16.35975456237793, -0.6318359375, -0.359130859375, -0.649169921875, 0, 
309, 715098272, 0.42868539690971375, 0.5404755473136902, -0.2714395821094513, 0.671144962310791, 0.999995768070221, 0.0013849260285496712, -0.002283157780766487, -0.001155441626906395, 0.07581055164337158, 0.010575294494628906, 0.02035975456237793, 9.101717948913574, 1.28296959400177, 2.4207353591918945, 19.044889450073242, -31.396976470947266, -15.889120101928711, -0.63818359375, -0.36181640625, -0.649658203125, 0, 
310, 715106605, 0.4281742572784424, 0.542900800704956, -0.2710198163986206, 0.6696818470954895, 0.9999957084655762, 0.0012509943917393684, -0.002386290580034256, -0.001155918464064598, 0.07562857866287231, 0.01113903522491455, 0.018487274646759033, 9.079510688781738, 1.3499761819839478, 2.1952567100524902, 17.2031192779541, -32.81521224975586, -15.89567756652832, -0.6396484375, -0.364990234375, -0.64013671875, 0, 
311, 715114938, 0.42772743105888367, 0.5453046560287476, -0.2707286477088928, 0.6681303381919861, 0.9999955296516418, 0.001095871441066265, -0.0025220010429620743, -0.0011647604405879974, 0.07422447204589844, 0.011386990547180176, 0.018661439418792725, 8.911320686340332, 1.379305124282837, 2.2155117988586426, 15.069939613342285, -34.68144607543945, -16.017271041870117, -0.636962890625, -0.365966796875, -0.63623046875, 0, 
312, 715123271, 0.4272948205471039, 0.5477712154388428, -0.2706039547920227, 0.6664380431175232, 0.9999953508377075, 0.0009667119011282921, -0.002643834799528122, -0.0011572185903787613, 0.0747644305229187, 0.01149672269821167, 0.01739811897277832, 8.97598934173584, 1.3920631408691406, 2.0627822875976562, 13.293793678283691, -36.35684585571289, -15.913557052612305, -0.640869140625, -0.366943359375, -0.6328125, 0, 
313, 715131604, 0.4269048273563385, 0.550270140171051, -0.27057671546936035, 0.6646379232406616, 0.9999949336051941, 0.0008437717333436012, -0.002819051966071129, -0.0011923611164093018, 0.07535427808761597, 0.01224428415298462, 0.018164515495300293, 9.047235488891602, 1.4819793701171875, 2.153109073638916, 11.603177070617676, -38.766361236572266, -16.396825790405273, -0.643310546875, -0.373046875, -0.62841796875, 0, 
314, 715139937, 0.42659205198287964, 0.5528678297996521, -0.2707703411579132, 0.6626010537147522, 0.9999944567680359, 0.0006518485024571419, -0.003024160861968994, -0.0012446008622646332, 0.07561272382736206, 0.012419700622558594, 0.01602381467819214, 9.077812194824219, 1.5029621124267578, 1.8945236206054688, 8.963934898376465, -41.586936950683594, -17.115205764770508, -0.644287109375, -0.3779296875, -0.625, 0, 
315, 715148270, 0.42628616094589233, 0.555469810962677, -0.2709704041481018, 0.6605366468429565, 0.999994158744812, 0.0005595004186034203, -0.0031140372157096863, -0.0012761373072862625, 0.0760452151298523, 0.010005176067352295, 0.0157545804977417, 9.130114555358887, 1.2133842706680298, 1.861493706703186, 7.694005012512207, -42.82288360595703, -17.54888343811035, -0.6533203125, -0.38134765625, -0.619140625, 0, 
316, 715156603, 0.4260562062263489, 0.5580867528915405, -0.2713027000427246, 0.6583390831947327, 0.9999940395355225, 0.00047873426228761673, -0.003162980079650879, -0.0012960005551576614, 0.0767812728881836, 0.012310147285461426, 0.012656927108764648, 9.216976165771484, 1.489950180053711, 1.4890164136886597, 6.58334493637085, -43.49592590332031, -17.82203483581543, -0.65234375, -0.3828125, -0.615234375, 0, 
317, 715164936, 0.4257778525352478, 0.5607219934463501, -0.27148663997650146, 0.656200647354126, 0.9999939203262329, 0.000492502935230732, -0.003171771764755249, -0.0013570860028266907, 0.0749940276145935, 0.011142849922180176, 0.014527559280395508, 9.003316879272461, 1.3502482175827026, 1.7142032384872437, 6.7726874351501465, -43.6168327331543, -18.662057876586914, -0.64990234375, -0.38427734375, -0.609375, 0, 
318, 715173269, 0.4255480170249939, 0.5634279251098633, -0.27187708020210266, 0.653866171836853, 0.9999935030937195, 0.0004411274567246437, -0.003323117271065712, -0.0013457071036100388, 0.07518899440765381, 0.009876668453216553, 0.01632368564605713, 9.027915954589844, 1.1982563734054565, 1.9283941984176636, 6.066193580627441, -45.69807052612305, -18.50558090209961, -0.654052734375, -0.38671875, -0.6044921875, 0, 
319, 715181602, 0.425231009721756, 0.5662086606025696, -0.27223697304725647, 0.651516318321228, 0.9999930262565613, 0.0004160003736615181, -0.0034628063440322876, -0.001353628933429718, 0.07442337274551392, 0.010741174221038818, 0.01315373182296753, 8.934844970703125, 1.3017457723617554, 1.5470179319381714, 5.720658302307129, -47.619022369384766, -18.614521026611328, -0.658447265625, -0.38671875, -0.60009765625, 0, 
320, 715189935, 0.4249494671821594, 0.5690721869468689, -0.27278074622154236, 0.6489728093147278, 0.9999924302101135, 0.00037971045821905136, -0.003623833879828453, -0.0013568196445703506, 0.07596391439437866, 0.01127094030380249, 0.011020779609680176, 9.118943214416504, 1.3654285669326782, 1.2890092134475708, 5.221614837646484, -49.833404541015625, -18.65839958190918, -0.661376953125, -0.39111328125, -0.592529296875, 0, 
321, 715198268, 0.42464253306388855, 0.571945309638977, -0.27327823638916016, 0.6464337706565857, 0.9999922513961792, 0.00040530692785978317, -0.0036660153418779373, -0.0013628266751766205, 0.07675862312316895, 0.009268105030059814, 0.009557366371154785, 9.214043617248535, 1.125236988067627, 1.112690806388855, 5.573607444763184, -50.41347122192383, -18.741008758544922, -0.662353515625, -0.39306640625, -0.589111328125, 0, 
322, 715206601, 0.4242432117462158, 0.5748944878578186, -0.2738345265388489, 0.6438392996788025, 0.9999920129776001, 0.00046099256724119186, -0.00374593585729599, -0.0013182815164327621, 0.0774279236793518, 0.007997393608093262, 0.010680675506591797, 9.295206069946289, 0.9725549221038818, 1.2464956045150757, 6.339373588562012, -51.51251220703125, -18.128448486328125, -0.66748046875, -0.39404296875, -0.579345703125, 0, 
323, 715214934, 0.42376282811164856, 0.5778247117996216, -0.2743504047393799, 0.6413077712059021, 0.9999920129776001, 0.00044975336641073227, -0.0037612486630678177, -0.0012670010328292847, 0.08132028579711914, 0.008952498435974121, 0.009254992008209229, 9.76158618927002, 1.0871939659118652, 1.0734732151031494, 6.184815883636475, -51.72308349609375, -17.423254013061523, -0.6669921875, -0.39990234375, -0.575927734375, 0, 
324, 715223267, 0.42331063747406006, 0.5806793570518494, -0.27485135197639465, 0.6388086080551147, 0.9999925494194031, 0.0005126791074872017, -0.0036215949803590775, -0.001249857246875763, 0.08327972888946533, 0.00854557752609253, 0.007657349109649658, 9.995963096618652, 1.0384584665298462, 0.8822185397148132, 7.050144195556641, -49.80262756347656, -17.187503814697266, -0.669677734375, -0.399658203125, -0.568603515625, 0, 
325, 715231600, 0.4226982891559601, 0.5835637450218201, -0.275194376707077, 0.6364336013793945, 0.9999925494194031, 0.0006282487884163857, -0.003609791398048401, -0.0012124944478273392, 0.08109819889068604, 0.00822991132736206, 0.01005488634109497, 9.735282897949219, 1.0001856088638306, 1.1708626747131348, 8.639408111572266, -49.64030456542969, -16.6737060546875, -0.670166015625, -0.403076171875, -0.565185546875, 0, 
326, 715239933, 0.42208799719810486, 0.5864933729171753, -0.27567827701568604, 0.6339313983917236, 0.9999922513961792, 0.0006460314616560936, -0.003707803785800934, -0.0011802837252616882, 0.08104676008224487, 0.009247004985809326, 0.008854091167449951, 9.7285795211792, 1.1218427419662476, 1.0257517099380493, 8.88394832611084, -50.98813247680664, -16.230758666992188, -0.678466796875, -0.404052734375, -0.559326171875, 0, 
327, 715248266, 0.42142871022224426, 0.5894075632095337, -0.27607637643814087, 0.631489098072052, 0.999992311000824, 0.0007385080680251122, -0.0036746133118867874, -0.0011669676750898361, 0.08500850200653076, 0.009360432624816895, 0.005484342575073242, 10.202484130859375, 1.1356770992279053, 0.6198325157165527, 10.155647277832031, -50.53171157836914, -16.047639846801758, -0.680419921875, -0.404052734375, -0.552734375, 0, 
328, 715256599, 0.4207870662212372, 0.5922645926475525, -0.2763533592224121, 0.6291182041168213, 0.9999927878379822, 0.0008002454414963722, -0.0035062842071056366, -0.0012067705392837524, 0.08209168910980225, 0.009583592414855957, 0.00785982608795166, 9.853267669677734, 1.1627146005630493, 0.907739520072937, 11.004632949829102, -48.2169189453125, -16.59499168395996, -0.6806640625, -0.410400390625, -0.54736328125, 0, 
329, 715264932, 0.4200717508792877, 0.5951650738716125, -0.27658337354660034, 0.6267534494400024, 0.9999926090240479, 0.0008261045441031456, -0.0035619232803583145, -0.00120563805103302, 0.07757627964019775, 0.009551763534545898, 0.009818613529205322, 9.31229305267334, 1.158436894416809, 1.1441937685012817, 11.360236167907715, -48.9820442199707, -16.579418182373047, -0.6845703125, -0.409423828125, -0.5419921875, 0, 
330, 715273265, 0.41937020421028137, 0.598182737827301, -0.2769227623939514, 0.6241953372955322, 0.9999918341636658, 0.0008119335398077965, -0.0037613101303577423, -0.0012550614774227142, 0.07815420627593994, 0.010230541229248047, 0.007526874542236328, 9.38068675994873, 1.240216851234436, 0.866960883140564, 11.165364265441895, -51.72393035888672, -17.259069442749023, -0.68359375, -0.414794921875, -0.53564453125, 0, 
331, 715281598, 0.4186953008174896, 0.6011888980865479, -0.27724626660346985, 0.6216112971305847, 0.999991774559021, 0.0007687220349907875, -0.003775099292397499, -0.0012921355664730072, 0.07744520902633667, 0.01128089427947998, 0.005693674087524414, 9.294575691223145, 1.3662856817245483, 0.6471413373947144, 10.571137428283691, -51.91355514526367, -17.768898010253906, -0.686279296875, -0.420166015625, -0.52490234375, 0, 
332, 715289931, 0.41803616285324097, 0.6041631698608398, -0.277616024017334, 0.6190007328987122, 0.9999918341636658, 0.0007347287610173225, -0.003766646608710289, -0.0012732259929180145, 0.08031481504440308, 0.013962149620056152, 0.0040128231048583984, 9.637792587280273, 1.6881513595581055, 0.4439910054206848, 10.103677749633789, -51.797325134277344, -17.508861541748047, -0.688720703125, -0.417724609375, -0.521484375, 0, 
333, 715298264, 0.417312890291214, 0.6070467233657837, -0.2779027223587036, 0.6165341734886169, 0.9999923706054688, 0.0007288632914423943, -0.003642382100224495, -0.0012100562453269958, 0.08115136623382568, 0.014429867267608643, 0.005460858345031738, 9.73879337310791, 1.743903398513794, 0.6186007261276245, 10.023015975952148, -50.088478088378906, -16.640174865722656, -0.695068359375, -0.421875, -0.51904296875, 0, 
334, 715306597, 0.41659122705459595, 0.609843909740448, -0.27834352850914, 0.6140578389167786, 0.9999926090240479, 0.0006919624283909798, -0.003623371943831444, -0.0010857488960027695, 0.08241850137710571, 0.015187084674835205, 0.005924344062805176, 9.891162872314453, 1.8337417840957642, 0.6738591194152832, 9.515571594238281, -49.82706069946289, -14.930752754211426, -0.69580078125, -0.424560546875, -0.509765625, 0, 
335, 715314930, 0.4157872200012207, 0.6126115918159485, -0.27877527475357056, 0.6116472482681274, 0.9999927878379822, 0.0007005678489804268, -0.003594515845179558, -0.0010107476264238358, 0.08445268869400024, 0.013864636421203613, 0.0040253400802612305, 10.134735107421875, 1.6743899583816528, 0.4454849362373352, 9.633907318115234, -49.430240631103516, -13.89936637878418, -0.6953125, -0.428955078125, -0.50634765625, 0, 
336, 715323263, 0.41498106718063354, 0.6153315305709839, -0.2791975736618042, 0.6092673540115356, 0.9999929666519165, 0.0007491791620850563, -0.0035330113023519516, -0.0009837523102760315, 0.08559203147888184, 0.012028813362121582, 0.002051234245300293, 10.270856857299805, 1.453791856765747, 0.20879627764225006, 10.302388191223145, -48.58444595336914, -13.528136253356934, -0.699951171875, -0.429931640625, -0.496337890625, 0, 
337, 715331596, 0.414091020822525, 0.6179739236831665, -0.27944910526275635, 0.6070790886878967, 0.999993622303009, 0.0008450383320450783, -0.0033329445868730545, -0.000942254438996315, 0.0849425196647644, 0.010097384452819824, 0.0018513798713684082, 10.19306755065918, 1.221506118774414, 0.18721410632133484, 11.62060260772705, -45.833213806152344, -12.957475662231445, -0.703857421875, -0.4306640625, -0.495361328125, 0, 
338, 715339929, 0.41327691078186035, 0.6204352974891663, -0.27970853447914124, 0.605000376701355, 0.9999943971633911, 0.0008301148191094398, -0.0031248703598976135, -0.0008818153291940689, 0.0841820240020752, 0.01325613260269165, 0.0022172927856445312, 10.101638793945312, 1.5999226570129395, 0.233183354139328, 11.415375709533691, -42.97185134887695, -12.126338005065918, -0.705322265625, -0.4326171875, -0.483642578125, 0, 
339, 715348262, 0.41239163279533386, 0.6228271126747131, -0.2798444330692291, 0.6030809879302979, 0.9999948740005493, 0.0009120488539338112, -0.0029520224779844284, -0.000837346538901329, 0.08488321304321289, 0.013398826122283936, 0.0022417306900024414, 10.185805320739746, 1.6166924238204956, 0.23746521770954132, 12.542095184326172, -40.59491729736328, -11.514822006225586, -0.703369140625, -0.436279296875, -0.479736328125, 0, 
340, 715356595, 0.4115491509437561, 0.6250969171524048, -0.279941588640213, 0.6012603044509888, 0.9999953508377075, 0.000938677228987217, -0.0027897674590349197, -0.0008052065968513489, 0.08525729179382324, 0.014788985252380371, 0.0034250617027282715, 10.23097038269043, 1.7833505868911743, 0.3808577060699463, 12.908275604248047, -38.36365509033203, -11.072845458984375, -0.70751953125, -0.43505859375, -0.477783203125, 0, 
341, 715364928, 0.4106403887271881, 0.6273301243782043, -0.2799517810344696, 0.5995484590530396, 0.9999956488609314, 0.0009611686691641808, -0.0026853177696466446, -0.000774092972278595, 0.08383423089981079, 0.016048729419708252, 0.004639744758605957, 10.060486793518066, 1.9342366456985474, 0.5279285311698914, 13.217567443847656, -36.927303314208984, -10.644984245300293, -0.708984375, -0.43896484375, -0.472900390625, 0, 
342, 715373261, 0.40977492928504944, 0.6295086145401001, -0.28005313873291016, 0.5978072881698608, 0.9999956488609314, 0.0009353598579764366, -0.0026933830231428146, -0.0007302369922399521, 0.08185601234436035, 0.016078591346740723, 0.00505596399307251, 9.823312759399414, 1.9372491836547852, 0.5784424543380737, 12.862654685974121, -37.038211822509766, -10.041894912719727, -0.708984375, -0.4443359375, -0.468994140625, 0, 
343, 715381594, 0.4088904857635498, 0.63164883852005, -0.2801975905895233, 0.5960854887962341, 0.9999958276748657, 0.000848318450152874, -0.0026773177087306976, -0.000680878758430481, 0.08205223083496094, 0.018033921718597412, 0.003615081310272217, 9.846321105957031, 2.171215534210205, 0.4056490361690521, 11.665699005126953, -36.817283630371094, -9.363142967224121, -0.7119140625, -0.44482421875, -0.461669921875, 0, 
344, 715389927, 0.4081468880176544, 0.6336669325828552, -0.2803751528263092, 0.5943672060966492, 0.9999961256980896, 0.000753483735024929, -0.0025803446769714355, -0.0007004179060459137, 0.08162420988082886, 0.0192868709564209, 0.0029240846633911133, 9.7945556640625, 2.3216371536254883, 0.3238757252693176, 10.361573219299316, -35.4837532043457, -9.6318359375, -0.713623046875, -0.44580078125, -0.45458984375, 0, 
345, 715398260, 0.4074653685092926, 0.6356075406074524, -0.2805143892765045, 0.5926945209503174, 0.9999964833259583, 0.0006332891061902046, -0.002473641186952591, -0.0007266923785209656, 0.08134680986404419, 0.0191686749458313, 0.002238929271697998, 9.760980606079102, 2.3075764179229736, 0.2431304156780243, 8.708707809448242, -34.01640701293945, -9.993147850036621, -0.714599609375, -0.447265625, -0.4541015625, 0, 
346, 715406593, 0.40694302320480347, 0.6373812556266785, -0.2806987762451172, 0.5910590887069702, 0.9999969005584717, 0.0005325330421328545, -0.002323489636182785, -0.0007249657064676285, 0.08236855268478394, 0.019036471843719482, 0.0018923282623291016, 9.883474349975586, 2.2917399406433105, 0.20293928682804108, 7.323154926300049, -31.951587677001953, -9.969403266906738, -0.716064453125, -0.45068359375, -0.4482421875, 0, 
347, 715414926, 0.4064842164516449, 0.6390377879142761, -0.28088101744651794, 0.589497447013855, 0.9999972581863403, 0.00039980653673410416, -0.002185007557272911, -0.0007011611014604568, 0.08063006401062012, 0.01868915557861328, 0.0031266212463378906, 9.675223350524902, 2.2497174739837646, 0.3531772792339325, 5.497958660125732, -30.047239303588867, -9.642050743103027, -0.715576171875, -0.4521484375, -0.4443359375, 0, 
348, 715423259, 0.40616416931152344, 0.6406044960021973, -0.28119271993637085, 0.5878667235374451, 0.9999973177909851, 0.00024532247334718704, -0.0021932441741228104, -0.0007027965039014816, 0.08145594596862793, 0.0182722806930542, 0.00029474496841430664, 9.7736234664917, 2.1996374130249023, 0.013394178822636604, 3.373563766479492, -30.160503387451172, -9.664541244506836, -0.7197265625, -0.45263671875, -0.4423828125, 0, 
349, 715431592, 0.40589937567710876, 0.6420668363571167, -0.28141647577285767, 0.586345374584198, 0.9999977350234985, 0.0001664320006966591, -0.0020115021616220474, -0.0007140375673770905, 0.08491790294647217, 0.01736348867416382, -0.002791106700897217, 10.188377380371094, 2.090930461883545, -0.3558170795440674, 2.2886974811553955, -27.661270141601562, -9.819121360778809, -0.71923828125, -0.4541015625, -0.4365234375, 0, 
350, 715439925, 0.40580886602401733, 0.6433043479919434, -0.2815931737422943, 0.5849651098251343, 0.9999982714653015, 0.00011414755135774612, -0.001719929277896881, -0.0007297564297914505, 0.08339905738830566, 0.018386542797088623, -0.0032263994216918945, 10.005990982055664, 2.2137582302093506, -0.4047123193740845, 1.5697053670883179, -23.65168571472168, -10.035279273986816, -0.7177734375, -0.455078125, -0.4345703125, 0, 
351, 715448258, 0.4057333767414093, 0.6444494128227234, -0.2817005217075348, 0.5837040543556213, 0.9999985694885254, 0.00006199907511472702, -0.001553654670715332, -0.0007025469094514847, 0.08209079504013062, 0.019199609756469727, -0.002747774124145508, 9.849140167236328, 2.310966968536377, -0.34524309635162354, 0.8525829911231995, -21.365150451660156, -9.661104202270508, -0.71923828125, -0.45458984375, -0.4326171875, 0, 
352, 715456591, 0.4057111442089081, 0.6454535722732544, -0.28184887766838074, 0.5825372338294983, 0.9999988079071045, 0.00005209539085626602, -0.0014154482632875443, -0.0006355252116918564, 0.08065170049667358, 0.019117236137390137, -0.003481268882751465, 9.676530838012695, 2.3002984523773193, -0.43160945177078247, 0.7163919806480408, -19.464597702026367, -8.739452362060547, -0.72265625, -0.4580078125, -0.427734375, 0, 
353, 715464924, 0.40563759207725525, 0.6463860273361206, -0.2819863259792328, 0.5814869403839111, 0.9999989867210388, 0.000016956590116024017, -0.0013013649731874466, -0.0005359426140785217, 0.0796707272529602, 0.019635438919067383, -0.003206193447113037, 9.559112548828125, 2.3614275455474854, -0.3971511125564575, 0.2331792414188385, -17.895774841308594, -7.370037078857422, -0.7216796875, -0.45947265625, -0.42724609375, 0, 
354, 715473257, 0.40558695793151855, 0.647186279296875, -0.28219980001449585, 0.5805277824401855, 0.9999991655349731, 0.00000828225165605545, -0.0011970270425081253, -0.00043513067066669464, 0.08070021867752075, 0.01902681589126587, -0.00532764196395874, 9.682663917541504, 2.2874839305877686, -0.6508607864379883, 0.11389370262622833, -16.46096420288086, -5.9837164878845215, -0.722900390625, -0.46044921875, -0.42431640625, 0, 
355, 715481590, 0.40547651052474976, 0.6479129791259766, -0.28234076499938965, 0.5797253847122192, 0.9999994039535522, 0.000021814368665218353, -0.0010304488241672516, -0.0003497079014778137, 0.08026641607284546, 0.018057644367218018, -0.004522860050201416, 9.631023406982422, 2.170381546020508, -0.5528002381324768, 0.29998117685317993, -14.170259475708008, -4.809022426605225, -0.721923828125, -0.46142578125, -0.423828125, 0, 
356, 715489923, 0.40541061758995056, 0.6485050916671753, -0.2825828492641449, 0.5789909958839417, 0.9999995231628418, -0.00001938268542289734, -0.0009466521441936493, -0.00025780126452445984, 0.07995748519897461, 0.01737433671951294, -0.0038130879402160645, 9.594315528869629, 2.0874617099761963, -0.4665440022945404, -0.2665417492389679, -13.017924308776855, -3.545164108276367, -0.718994140625, -0.45947265625, -0.423828125, 0, 
357, 715498256, 0.4053087830543518, 0.6490471959114075, -0.28283053636550903, 0.5783331394195557, 0.9999995827674866, -0.00009114667773246765, -0.000868210569024086, -0.00017216429114341736, 0.08038586378097534, 0.018052220344543457, -0.0028133392333984375, 9.646010398864746, 2.16807222366333, -0.34592533111572266, -1.2534071207046509, -11.939231872558594, -2.367523670196533, -0.722900390625, -0.45947265625, -0.41845703125, 0, 
358, 715506589, 0.4053247272968292, 0.6494733691215515, -0.2832375168800354, 0.577643871307373, 0.9999995827674866, -0.00022248923778533936, -0.0008648764342069626, -0.00013266876339912415, 0.08072572946548462, 0.01875936985015869, -0.0021122097969055176, 9.686962127685547, 2.2525389194488525, -0.2612517476081848, -3.0595693588256836, -11.89338207244873, -1.824399709701538, -0.723876953125, -0.45849609375, -0.419921875, 0, 
359, 715514922, 0.4053950607776642, 0.649869441986084, -0.28369036316871643, 0.5769267678260803, 0.9999995231628418, -0.0003944840282201767, -0.0008531659841537476, -0.00011970475316047668, 0.0822911262512207, 0.019969165325164795, -0.004291892051696777, 9.874605178833008, 2.397775888442993, -0.5224959254264832, -5.424762725830078, -11.732343673706055, -1.6461247205734253, -0.725341796875, -0.4599609375, -0.41943359375, 0, 
360, 715523255, 0.4056219160556793, 0.6500636339187622, -0.28422287106513977, 0.5762861371040344, 0.9999996423721313, -0.000512290745973587, -0.0006905067712068558, -0.00008737854659557343, 0.08438146114349365, 0.02041524648666382, -0.005940377712249756, 10.125473976135254, 2.4511759281158447, -0.7185964584350586, -7.044785976409912, -9.49553108215332, -1.2015894651412964, -0.725830078125, -0.458984375, -0.41748046875, 0, 
361, 715531588, 0.40589070320129395, 0.6501752138137817, -0.2847067415714264, 0.5757319331169128, 0.9999997019767761, -0.0006032362580299377, -0.0005354080349206924, -0.00006446428596973419, 0.08366811275482178, 0.021911263465881348, -0.003831028938293457, 10.04015827178955, 2.6303837299346924, -0.46353664994239807, -8.295426368713379, -7.3626837730407715, -0.8864831328392029, -0.721435546875, -0.45947265625, -0.4140625, 0, 
362, 715539921, 0.4062315821647644, 0.6501725316047668, -0.2852831482887268, 0.5752089619636536, 0.9999996423721313, -0.0006582401692867279, -0.00048590824007987976, -0.000020693987607955933, 0.08360904455184937, 0.021862328052520752, -0.0036681294441223145, 10.033222198486328, 2.6240715980529785, -0.44327476620674133, -9.0518159866333, -6.681986331939697, -0.2845741808414459, -0.726318359375, -0.4619140625, -0.419921875, 0, 
363, 715548254, 0.40653353929519653, 0.650155246257782, -0.28585004806518555, 0.5747333765029907, 0.9999996423721313, -0.0007183104753494263, -0.00043432600796222687, 0.000043711625039577484, 0.08371835947036743, 0.020388364791870117, -0.003493368625640869, 10.046527862548828, 2.4465625286102295, -0.4218592047691345, -9.877874374389648, -5.972650527954102, 0.6011020541191101, -0.722900390625, -0.45654296875, -0.4189453125, 0, 
364, 715556587, 0.40693196654319763, 0.6500070095062256, -0.2865523397922516, 0.5742694139480591, 0.9999995827674866, -0.0008103419095277786, -0.00039853714406490326, 0.00009364727884531021, 0.08363902568817139, 0.019134104251861572, -0.004329681396484375, 10.037092208862305, 2.2956600189208984, -0.5217486619949341, -11.143449783325195, -5.480499267578125, 1.2877942323684692, -0.724853515625, -0.45654296875, -0.42333984375, 0, 
365, 715564920, 0.4073394238948822, 0.6498274803161621, -0.2872190475463867, 0.5738503932952881, 0.9999995827674866, -0.0008803755044937134, -0.0003089606761932373, 0.00012085307389497757, 0.08471024036407471, 0.017703115940093994, -0.005622923374176025, 10.16568374633789, 2.1238183975219727, -0.6760612726211548, -12.106518745422363, -4.248684883117676, 1.661915898323059, -0.725341796875, -0.45849609375, -0.4189453125, 0, 
366, 715573253, 0.40781599283218384, 0.649509608745575, -0.28789860010147095, 0.5735313892364502, 0.9999995827674866, -0.000875694677233696, -0.00017514824867248535, 0.00014184508472681046, 0.08506625890731812, 0.01623588800430298, -0.004841148853302002, 10.20853042602539, 1.9474599361419678, -0.5810418128967285, -12.042150497436523, -2.4085581302642822, 1.9505882263183594, -0.723876953125, -0.458984375, -0.419921875, 0, 
367, 715581586, 0.4082481861114502, 0.649228036403656, -0.2884836792945862, 0.5732483267784119, 0.9999996423721313, -0.0008565839380025864, -0.00011933781206607819, 0.0001396099105477333, 0.0853385329246521, 0.014537930488586426, -0.004109680652618408, 10.24122142791748, 1.7436047792434692, -0.492906779050827, -11.779348373413086, -1.6410787105560303, 1.9198514223098755, -0.726806640625, -0.4560546875, -0.421875, 0, 
368, 715589919, 0.4087475538253784, 0.6488455533981323, -0.28904467821121216, 0.5730431079864502, 0.9999996423721313, -0.0008161105215549469, -0.000009112060070037842, 0.00011691730469465256, 0.08761221170425415, 0.01368623971939087, -0.00663149356842041, 10.514071464538574, 1.641829490661621, -0.7945563197135925, -11.222776412963867, -0.12530484795570374, 1.6077929735183716, -0.730224609375, -0.45654296875, -0.4228515625, 0, 
369, 715598252, 0.40924564003944397, 0.6484131217002869, -0.2893768846988678, 0.5730093121528625, 0.9999997019767761, -0.0007407180964946747, 0.0002549579367041588, 0.00008082669228315353, 0.08900409936904907, 0.013519227504730225, -0.007362842559814453, 10.681276321411133, 1.6221601963043213, -0.8796156644821167, -10.186014175415039, 3.5060644149780273, 1.1114914417266846, -0.7265625, -0.4541015625, -0.42333984375, 0, 
370, 715606585, 0.40982308983802795, 0.6478003263473511, -0.28961628675460815, 0.5731686353683472, 0.9999996423721313, -0.0006713066250085831, 0.0005134763196110725, 0.00007943529635667801, 0.08835625648498535, 0.015139877796173096, -0.005094170570373535, 10.603629112243652, 1.816428542137146, -0.6047104001045227, -9.231498718261719, 7.061089515686035, 1.0923575162887573, -0.7236328125, -0.45166015625, -0.42138671875, 0, 
371, 715614918, 0.41035449504852295, 0.6471892595291138, -0.28975963592529297, 0.5734063386917114, 0.9999995827674866, -0.0006532482802867889, 0.0006245607510209084, 0.00009763147681951523, 0.08614617586135864, 0.016532301902770996, -0.0018870234489440918, 10.338292121887207, 1.9830842018127441, -0.2186230570077896, -8.983170509338379, 8.588671684265137, 1.342583179473877, -0.7265625, -0.4541015625, -0.42822265625, 0, 
372, 715623251, 0.4109751284122467, 0.6464897990226746, -0.2899889051914215, 0.5736350417137146, 0.9999995231628418, -0.0007089879363775253, 0.0006249519065022469, 0.00010158214718103409, 0.08494573831558228, 0.01803213357925415, -0.0025016069412231445, 10.19429874420166, 2.1631267070770264, -0.29238295555114746, -9.749675750732422, 8.594050407409668, 1.3969109058380127, -0.7255859375, -0.453125, -0.42626953125, 0, 
373, 715631584, 0.4116153120994568, 0.6457783579826355, -0.2902010381221771, 0.573870062828064, 0.999999463558197, -0.0008041039109230042, 0.0006857579573988914, 0.00010570231825113297, 0.08476901054382324, 0.01930612325668335, -0.004200279712677002, 10.17327880859375, 2.316152334213257, -0.49517983198165894, -11.057666778564453, 9.430228233337402, 1.4535696506500244, -0.72412109375, -0.453125, -0.431640625, 0, 
374, 715639917, 0.4124346673488617, 0.6449146270751953, -0.2904832065105438, 0.5741102695465088, 0.9999992847442627, -0.0009321048855781555, 0.0007626721635460854, 0.00007413048297166824, 0.08466148376464844, 0.01969820261001587, -0.0044029951095581055, 10.160361289978027, 2.363614082336426, -0.5183990001678467, -12.817878723144531, 10.48791790008545, 1.0194084644317627, -0.72705078125, -0.45263671875, -0.4326171875, 0, 
375, 715648250, 0.41328635811805725, 0.6440518498420715, -0.29071223735809326, 0.5743500590324402, 0.9999991655349731, -0.001013902947306633, 0.0008316198363900185, 0.0000423165038228035, 0.0854727029800415, 0.01979827880859375, -0.002476930618286133, 10.257479667663574, 2.375751495361328, -0.2862590551376343, -13.942728996276855, 11.436055183410645, 0.5819172263145447, -0.724609375, -0.44775390625, -0.4345703125, 0, 
376, 715656583, 0.4141598641872406, 0.6431559920310974, -0.29094353318214417, 0.5746075510978699, 0.9999992251396179, -0.0009462200105190277, 0.0008292319253087044, 0.000026858411729335785, 0.08472466468811035, 0.01754295825958252, 0.00006246566772460938, 10.167413711547852, 2.10495662689209, 0.01789187826216221, -13.011982917785645, 11.403217315673828, 0.3693445026874542, -0.7236328125, -0.4482421875, -0.43505859375, 0, 
377, 715664916, 0.41492030024528503, 0.6423917412757874, -0.2911438047885895, 0.5748122930526733, 0.9999993443489075, -0.0009016953408718109, 0.0007416969165205956, 0.00003473367542028427, 0.08341079950332642, 0.015361189842224121, 0.0008922815322875977, 10.00967788696289, 1.8429670333862305, 0.1162077859044075, -12.399700164794922, 10.199475288391113, 0.4776415228843689, -0.72119140625, -0.44482421875, -0.43798828125, 0, 
378, 715673249, 0.41568124294281006, 0.6416239738464355, -0.29140350222587585, 0.5749883651733398, 0.9999994039535522, -0.0008608344942331314, 0.0006587943062186241, 0.00003872532397508621, 0.08317416906356812, 0.013159036636352539, -0.00006186962127685547, 9.981363296508789, 1.5787698030471802, 0.0004141293466091156, -11.837800979614258, 9.05943775177002, 0.5325328707695007, -0.72119140625, -0.44775390625, -0.4365234375, 0, 
379, 715681582, 0.416340172290802, 0.6409652829170227, -0.2915768027305603, 0.5751586556434631, 0.999999463558197, -0.0007846243679523468, 0.0006399406120181084, 0.00003001932054758072, 0.08214986324310303, 0.012610197067260742, 0.0005093812942504883, 9.858381271362305, 1.5129425525665283, 0.0685308650135994, -10.789794921875, 8.800169944763184, 0.41281193494796753, -0.720458984375, -0.4462890625, -0.4462890625, 0, 
380, 715689915, 0.4169735610485077, 0.6403471827507019, -0.2917426824569702, 0.5753042101860046, 0.9999996423721313, -0.000671830028295517, 0.0005552088841795921, -0.000004353001713752747, 0.07938176393508911, 0.012770116329193115, 0.0036343932151794434, 9.525947570800781, 1.5322275161743164, 0.4423419237136841, -9.23869800567627, 7.634976863861084, -0.059860486537218094, -0.720458984375, -0.44580078125, -0.4423828125, 0, 
381, 715698248, 0.41745856404304504, 0.6399539113044739, -0.29189375042915344, 0.5753136873245239, 0.9999997615814209, -0.0005973055958747864, 0.00034191180020570755, -0.0000325273722410202, 0.07655799388885498, 0.0137215256690979, 0.005118727684020996, 9.18706226348877, 1.6465801000595093, 0.6184148788452148, -8.213871955871582, 4.701813697814941, -0.4473014771938324, -0.718994140625, -0.4453125, -0.44970703125, 0, 
382, 715706581, 0.41794395446777344, 0.6396721601486206, -0.29217588901519775, 0.575131356716156, 0.9999998211860657, -0.0005993545055389404, 0.000060235150158405304, -0.00007985532283782959, 0.07609438896179199, 0.014680683612823486, 0.0038507580757141113, 9.1315279006958, 1.7621901035308838, 0.4636649787425995, -8.242045402526855, 0.8283259868621826, -1.0981334447860718, -0.719482421875, -0.44482421875, -0.44677734375, 0, 
383, 715714914, 0.41836607456207275, 0.6395938992500305, -0.2924431264400482, 0.5747753977775574, 0.9999998211860657, -0.000598149374127388, -0.0001443028450012207, -0.00016912445425987244, 0.07706493139266968, 0.014538049697875977, 0.0024322867393493652, 9.247901916503906, 1.7460592985153198, 0.29158827662467957, -8.22547435760498, -1.9843862056732178, -2.325721502304077, -0.720458984375, -0.44580078125, -0.45068359375, 0, 
384, 715723247, 0.41881757974624634, 0.6395804286003113, -0.2927555441856384, 0.5743024349212646, 0.9999997615814209, -0.0005678460001945496, -0.0003024674952030182, -0.0002408195286989212, 0.07709693908691406, 0.015089035034179688, 0.002872645854949951, 9.251665115356445, 1.8128103017807007, 0.3429431617259979, -7.808757305145264, -4.159393787384033, -3.3116393089294434, -0.720947265625, -0.44482421875, -0.4462890625, 0, 
385, 715731580, 0.4192125201225281, 0.6397385001182556, -0.29307499527931213, 0.5736747980117798, 0.9999996423721313, -0.0005925465375185013, -0.00048723630607128143, -0.00030388496816158295, 0.07674050331115723, 0.016441643238067627, 0.003382444381713867, 9.208824157714844, 1.9756522178649902, 0.4025699496269226, -8.14842700958252, -6.700249195098877, -4.178885459899902, -0.720458984375, -0.443359375, -0.44970703125, 0, 
386, 715739913, 0.4197167456150055, 0.639934241771698, -0.2935284674167633, 0.5728554725646973, 0.999999463558197, -0.0006965231150388718, -0.0006875284016132355, -0.0003871209919452667, 0.07771122455596924, 0.01695042848587036, 0.0017924904823303223, 9.325080871582031, 2.0375776290893555, 0.21013563871383667, -9.578265190124512, -9.454573631286621, -5.323509216308594, -0.718994140625, -0.4453125, -0.45068359375, 0, 
387, 715748246, 0.42027902603149414, 0.6402796506881714, -0.29397955536842346, 0.5718249678611755, 0.9999991655349731, -0.0008075423538684845, -0.0008599720895290375, -0.000539582222700119, 0.0799105167388916, 0.016636788845062256, -0.000053822994232177734, 9.588569641113281, 2.0016331672668457, -0.013037202879786491, -11.104951858520508, -11.825942039489746, -7.420086860656738, -0.719970703125, -0.44580078125, -0.44580078125, 0, 
388, 715756579, 0.4210078716278076, 0.6406134366989136, -0.29442355036735535, 0.5706854462623596, 0.9999989867210388, -0.0008710958063602448, -0.000901542603969574, -0.0006967242807149887, 0.0823093056678772, 0.016555726528167725, -0.00273817777633667, 9.875828742980957, 1.9939342737197876, -0.33576396107673645, -11.978909492492676, -12.397600173950195, -9.581033706665039, -0.720947265625, -0.4453125, -0.44921875, 0, 
389, 715764912, 0.42171719670295715, 0.6410073041915894, -0.2946721017360687, 0.569590151309967, 0.9999990463256836, -0.0008082669228315353, -0.0008081346750259399, -0.0007927771657705307, 0.08305913209915161, 0.017000973224639893, -0.004084885120391846, 9.965474128723145, 2.0485076904296875, -0.4966166615486145, -11.11491584777832, -11.113097190856934, -10.901906967163086, -0.722900390625, -0.44580078125, -0.44775390625, 0, 
390, 715773245, 0.42241376638412476, 0.6413471102714539, -0.2948971390724182, 0.5685742497444153, 0.9999991655349731, -0.0006865896284580231, -0.0007429700344800949, -0.0007681846618652344, 0.0819215178489685, 0.01658076047897339, -0.003291904926300049, 9.829154014587402, 1.9975744485855103, -0.40096473693847656, -9.441664695739746, -10.2169828414917, -10.56372356414795, -0.718505859375, -0.4453125, -0.4482421875, 0, 
391, 715781578, 0.42286747694015503, 0.6417878270149231, -0.29504480957984924, 0.5676620602607727, 0.9999994039535522, -0.0004937946796417236, -0.0007416568696498871, -0.0006501208990812302, 0.07920032739639282, 0.015230238437652588, -0.002848207950592041, 9.502968788146973, 1.834078073501587, -0.34797096252441406, -6.790437698364258, -10.198925018310547, -8.940163612365723, -0.718505859375, -0.44580078125, -0.4453125, 0, 
392, 715789911, 0.4231278598308563, 0.6422719359397888, -0.29523369669914246, 0.5668216943740845, 0.999999463558197, -0.0002736058086156845, -0.0008255653083324432, -0.0005118455737829208, 0.07634896039962769, 0.013681411743164062, -0.0033545494079589844, 9.161070823669434, 1.6466106176376343, -0.4096403419971466, -3.7625014781951904, -11.352795600891113, -7.038665771484375, -0.718505859375, -0.447265625, -0.44580078125, 0, 
393, 715798244, 0.4231181740760803, 0.6429256796836853, -0.29538455605506897, 0.5660085678100586, 0.999999463558197, -0.00007813051342964172, -0.0009347405284643173, -0.0004069320857524872, 0.07451283931732178, 0.012708723545074463, -0.003823697566986084, 8.940847396850586, 1.5287739038467407, -0.4670821726322174, -1.0744149684906006, -12.854124069213867, -5.595943927764893, -0.723388671875, -0.447265625, -0.4462890625, 0, 
394, 715806577, 0.42299994826316833, 0.6436454653739929, -0.29553359746932983, 0.5652005076408386, 0.9999994039535522, 0.00010153930634260178, -0.0010332204401493073, -0.0003787931054830551, 0.07338953018188477, 0.012568652629852295, -0.004843533039093018, 8.805920600891113, 1.5115766525268555, -0.5905039310455322, 1.3963217735290527, -14.208372116088867, -5.208988189697266, -0.720458984375, -0.44775390625, -0.443359375, 0, 
395, 715814910, 0.42272210121154785, 0.6445292234420776, -0.2956191897392273, 0.5643557906150818, 0.9999992847442627, 0.00022566597908735275, -0.0011320728808641434, -0.0003815554082393646, 0.07203543186187744, 0.01324164867401123, -0.005025804042816162, 8.643292427062988, 1.5922482013702393, -0.6133476495742798, 3.1032543182373047, -15.567744255065918, -5.246973991394043, -0.7197265625, -0.45166015625, -0.439453125, 0, 
396, 715823243, 0.4224277138710022, 0.6454213261604309, -0.2957586944103241, 0.5634828805923462, 0.9999991655349731, 0.000274057500064373, -0.0012202505022287369, -0.0003637447953224182, 0.07319897413253784, 0.015345096588134766, -0.007322490215301514, 8.782478332519531, 1.844442367553711, -0.8899722695350647, 3.7687127590179443, -16.780324935913086, -5.00205135345459, -0.72412109375, -0.45068359375, -0.44091796875, 0, 
397, 715831576, 0.4220549762248993, 0.6463573575019836, -0.2958880066871643, 0.5626208782196045, 0.9999991655349731, 0.0002654874697327614, -0.001219961792230606, -0.0003234241157770157, 0.07465267181396484, 0.017335474491119385, -0.008086442947387695, 8.956811904907227, 2.0829873085021973, -0.9819310903549194, 3.6508612632751465, -16.776351928710938, -4.447579860687256, -0.72265625, -0.44970703125, -0.43896484375, 0, 
398, 715839909, 0.42176228761672974, 0.6472207903862, -0.2961592376232147, 0.5617042183876038, 0.9999991059303284, 0.00017350073903799057, -0.0012874137610197067, -0.00028937123715877533, 0.0733991265296936, 0.019343137741088867, -0.0062999725341796875, 8.806608200073242, 2.3236684799194336, -0.7676831483840942, 2.3859024047851562, -17.703920364379883, -3.9793002605438232, -0.72119140625, -0.44921875, -0.439453125, 0, 
399, 715848242, 0.4213963747024536, 0.6481749415397644, -0.29658928513526917, 0.5606508255004883, 0.9999988675117493, 0.000045464374125003815, -0.0014712493866682053, -0.00021958351135253906, 0.07233667373657227, 0.02076089382171631, -0.007274210453033447, 8.678916931152344, 2.49326491355896, -0.8857688307762146, 0.6252052187919617, -20.23194694519043, -3.0196118354797363, -0.72216796875, -0.4501953125, -0.43017578125, 0, 
400, 715856575, 0.4211118221282959, 0.6490784287452698, -0.2972344756126404, 0.5594766139984131, 0.9999986290931702, -0.00010110065340995789, -0.0016317293047904968, -0.0001720879226922989, 0.07249605655670166, 0.021319866180419922, -0.010033071041107178, 8.697453498840332, 2.5601112842559814, -1.2180020809173584, -1.3902900218963623, -22.43879508972168, -2.3664743900299072, -0.7255859375, -0.451171875, -0.43408203125, 0, 
401, 715864908, 0.42077937722206116, 0.6500421762466431, -0.29794687032699585, 0.5582271814346313, 0.9999985098838806, -0.00019292347133159637, -0.001709967851638794, -0.00013558007776737213, 0.07233983278274536, 0.02213287353515625, -0.012454986572265625, 8.678202629089355, 2.657517433166504, -1.5089914798736572, -2.6529958248138428, -23.514698028564453, -1.8644356727600098, -0.7236328125, -0.45263671875, -0.42822265625, 0, 
402, 715873241, 0.42054226994514465, 0.6509028673171997, -0.29876694083213806, 0.5569630861282349, 0.9999984502792358, -0.0002744179219007492, -0.0017256531864404678, -0.00010984577238559723, 0.07336127758026123, 0.021719396114349365, -0.013006329536437988, 8.800713539123535, 2.607830762863159, -1.575317621231079, -3.773669719696045, -23.730396270751953, -1.5105489492416382, -0.72607421875, -0.451171875, -0.4267578125, 0, 
403, 715881574, 0.4202631711959839, 0.6517983675003052, -0.29960450530052185, 0.5556754469871521, 0.9999984502792358, -0.00033487938344478607, -0.0017241593450307846, -0.00007439404726028442, 0.07277423143386841, 0.02121180295944214, -0.011660277843475342, 8.730639457702637, 2.5466415882110596, -1.4135342836380005, -4.605108261108398, -23.709850311279297, -1.0230330228805542, -0.73046875, -0.45068359375, -0.4228515625, 0, 
404, 715889907, 0.4200482666492462, 0.6526316404342651, -0.300537645816803, 0.5543544292449951, 0.9999983310699463, -0.00038049928843975067, -0.0017881281673908234, -0.00006403215229511261, 0.07293319702148438, 0.02119964361190796, -0.010409653186798096, 8.749933242797852, 2.5450940132141113, -1.2638520002365112, -5.232452392578125, -24.589523315429688, -0.8805409073829651, -0.730224609375, -0.4521484375, -0.4189453125, 0, 
405, 715898240, 0.41976621747016907, 0.653571605682373, -0.3015030324459076, 0.5529343485832214, 0.999998152256012, -0.0004263445734977722, -0.0018810685724020004, -0.00005342438817024231, 0.07209080457687378, 0.0222284197807312, -0.008671760559082031, 8.649130821228027, 2.6684253215789795, -1.05579674243927, -5.8628973960876465, -25.86760139465332, -0.734667956829071, -0.730224609375, -0.45068359375, -0.41943359375, 0, 
406, 715906573, 0.4195558726787567, 0.6544869542121887, -0.30260738730430603, 0.5514059066772461, 0.9999977946281433, -0.000506233423948288, -0.0020395033061504364, -0.00006639957427978516, 0.07173454761505127, 0.0240938663482666, -0.00875633955001831, 8.606148719787598, 2.892483711242676, -1.0668596029281616, -6.961493968963623, -28.046327590942383, -0.9130969643592834, -0.731689453125, -0.4521484375, -0.41748046875, 0, 
407, 715914906, 0.4193335473537445, 0.6554914116859436, -0.30378612875938416, 0.5497314929962158, 0.9999974966049194, -0.00064084492623806, -0.002151288092136383, -0.00006665848195552826, 0.07273924350738525, 0.02628636360168457, -0.00922548770904541, 8.726456642150879, 3.15578293800354, -1.1238359212875366, -8.81261157989502, -29.583547592163086, -0.9166575074195862, -0.733154296875, -0.4521484375, -0.41259765625, 0, 
408, 715923239, 0.4192752540111542, 0.6563723683357239, -0.3051530718803406, 0.5479649901390076, 0.9999971389770508, -0.0008370652794837952, -0.002240179106593132, -0.00006707198917865753, 0.0741625428199768, 0.028493106365203857, -0.009151875972747803, 8.897157669067383, 3.420830249786377, -1.1153368949890137, -11.510944366455078, -30.805936813354492, -0.9223437309265137, -0.734130859375, -0.44873046875, -0.41259765625, 0, 
409, 715931572, 0.41927799582481384, 0.65730220079422, -0.3066348433494568, 0.5460172295570374, 0.9999966621398926, -0.0010701008141040802, -0.002344556152820587, -0.00007410533726215363, 0.07530218362808228, 0.02935504913330078, -0.00847691297531128, 9.033963203430176, 3.524509906768799, -1.0346803665161133, -14.715548515319824, -32.24129104614258, -1.0190634727478027, -0.736572265625, -0.4521484375, -0.406494140625, 0, 
410, 715939905, 0.4194440543651581, 0.6581048965454102, -0.3083183467388153, 0.543971061706543, 0.9999961853027344, -0.0012759491801261902, -0.0024450067430734634, -0.00007490627467632294, 0.07597565650939941, 0.02985602617263794, -0.007705986499786377, 9.114903450012207, 3.5847339630126953, -0.9424450993537903, -17.546283721923828, -33.622642517089844, -1.0300776958465576, -0.739501953125, -0.44677734375, -0.404052734375, 0, 
411, 715948238, 0.4196149408817291, 0.6590110659599304, -0.31010982394218445, 0.541719377040863, 0.9999955296516418, -0.0014536809176206589, -0.0026066042482852936, -0.00007064640522003174, 0.07627248764038086, 0.02942037582397461, -0.0086517333984375, 9.150092124938965, 3.5327510833740234, -1.0569684505462646, -19.990381240844727, -35.84487533569336, -0.9714982509613037, -0.742431640625, -0.449462890625, -0.405029296875, 0, 
412, 715956571, 0.4198649227619171, 0.6598415970802307, -0.31206825375556946, 0.5393850803375244, 0.9999950528144836, -0.001557871699333191, -0.0027391109615564346, -0.00006857328116893768, 0.07755404710769653, 0.026488900184631348, -0.010863125324249268, 9.303054809570312, 3.181471824645996, -1.3241416215896606, -21.42316436767578, -37.66704559326172, -0.9429894685745239, -0.743408203125, -0.446533203125, -0.403564453125, 0, 
413, 715964904, 0.42007896304130554, 0.6607711911201477, -0.3139667212963104, 0.5369731783866882, 0.9999949932098389, -0.0015734825283288956, -0.002752140164375305, -0.00008757226169109344, 0.07980018854141235, 0.023797690868377686, -0.0129813551902771, 9.571853637695312, 2.85913348197937, -1.5796496868133545, -21.63783836364746, -37.84621810913086, -1.204255223274231, -0.7451171875, -0.446044921875, -0.398193359375, 0, 
414, 715973237, 0.4203356206417084, 0.661549985408783, -0.3158528804779053, 0.5347025394439697, 0.9999953508377075, -0.0015251263976097107, -0.002636794000864029, -0.00007640384137630463, 0.07976710796356201, 0.02150017023086548, -0.013460695743560791, 9.567954063415527, 2.58333420753479, -1.636679768562317, -20.97286605834961, -36.26002502441406, -1.050671935081482, -0.7421875, -0.44580078125, -0.395263671875, 0, 
415, 715981570, 0.42048606276512146, 0.6623871326446533, -0.3176151514053345, 0.5324991345405579, 0.999995768070221, -0.0014314092695713043, -0.0025234203785657883, -0.000019505620002746582, 0.0794914960861206, 0.018962562084197998, -0.015477955341339111, 9.53462028503418, 2.2784488201141357, -1.8782069683074951, -19.684106826782227, -34.70096206665039, -0.26823264360427856, -0.74609375, -0.446044921875, -0.393798828125, 0, 
416, 715989903, 0.4205944836139679, 0.6630849242210388, -0.31937167048454285, 0.5304905772209167, 0.9999962449073792, -0.0013087354600429535, -0.0024122782051563263, 0.00005302485078573227, 0.07991927862167358, 0.017344355583190918, -0.017503976821899414, 9.58572006225586, 2.0836572647094727, -2.1209821701049805, -17.997146606445312, -33.17257308959961, 0.729174017906189, -0.748046875, -0.445068359375, -0.389892578125, 0, 
417, 715998236, 0.4205091595649719, 0.6638442277908325, -0.3210057020187378, 0.5286193490028381, 0.9999967217445374, -0.0011386852711439133, -0.002278793603181839, 0.0001882975921034813, 0.08058327436447144, 0.016407907009124756, -0.018975794315338135, 9.665544509887695, 1.9698076248168945, -2.2969822883605957, -15.658692359924316, -31.336952209472656, 2.5893845558166504, -0.7490234375, -0.442138671875, -0.387939453125, 0, 
418, 716006569, 0.42032161355018616, 0.664439857006073, -0.32264500856399536, 0.5270197987556458, 0.9999971985816956, -0.0009621977806091309, -0.002132061868906021, 0.00033713970333337784, 0.0810123085975647, 0.01575183868408203, -0.019245266914367676, 9.717574119567871, 1.8892494440078735, -2.3283894062042236, -13.231710433959961, -29.319154739379883, 4.63619327545166, -0.75146484375, -0.439697265625, -0.387451171875, 0, 
419, 716014902, 0.41993632912635803, 0.6650387048721313, -0.3242325484752655, 0.5255953073501587, 0.9999975562095642, -0.0008420422673225403, -0.001966554671525955, 0.0005542663857340813, 0.08279967308044434, 0.015109777450561523, -0.019761204719543457, 9.932683944702148, 1.8097381591796875, -2.3894660472869873, -11.579383850097656, -27.043169021606445, 7.622020721435547, -0.75390625, -0.441162109375, -0.388427734375, 0, 
420, 716023235, 0.4195270538330078, 0.6653572916984558, -0.3259042501449585, 0.524483859539032, 0.9999978542327881, -0.0007903184741735458, -0.0017468556761741638, 0.0007706349715590477, 0.08315342664718628, 0.018132448196411133, -0.01657658815383911, 9.977005004882812, 2.16987943649292, -2.0049521923065186, -10.868102073669434, -24.02197265625, 10.597423553466797, -0.75927734375, -0.440673828125, -0.383056640625, 0, 
421, 716031568, 0.4190344214439392, 0.6656699180603027, -0.3276025950908661, 0.5234218239784241, 0.9999978542327881, -0.0008312687277793884, -0.0016471222043037415, 0.0009263204410672188, 0.08171629905700684, 0.022455930709838867, -0.014054417610168457, 9.806056022644043, 2.6871418952941895, -1.7005102634429932, -11.431230545043945, -22.650476455688477, 12.738337516784668, -0.75634765625, -0.439208984375, -0.381591796875, 0, 
422, 716039901, 0.4186020791530609, 0.6657839417457581, -0.32955825328826904, 0.5223941206932068, 0.9999974966049194, -0.000982183963060379, -0.0017102155834436417, 0.0010740989819169044, 0.08206313848495483, 0.024312198162078857, -0.01321953535079956, 9.848377227783203, 2.908576726913452, -1.6003689765930176, -13.506550788879395, -23.518115997314453, 14.770524978637695, -0.75830078125, -0.436279296875, -0.380615234375, 0, 
423, 716048234, 0.41823115944862366, 0.6658331155776978, -0.3317546844482422, 0.5212371349334717, 0.9999968409538269, -0.001318102702498436, -0.0017380733042955399, 0.001243620179593563, 0.08609086275100708, 0.025525689125061035, -0.010647952556610107, 10.332894325256348, 3.052022933959961, -1.2917594909667969, -18.125959396362305, -23.901206970214844, 17.101707458496094, -0.763671875, -0.433837890625, -0.376220703125, 0, 
424, 716056567, 0.4181552529335022, 0.665581464767456, -0.33419114351272583, 0.520061731338501, 0.9999963641166687, -0.0016721170395612717, -0.001700565218925476, 0.0012678420171141624, 0.08725959062576294, 0.02844148874282837, -0.01020735502243042, 10.47380256652832, 3.401883602142334, -1.2370500564575195, -22.99420738220215, -23.38541603088379, 17.434799194335938, -0.7666015625, -0.43017578125, -0.379638671875, 0, 
425, 716064900, 0.41818416118621826, 0.6653780341148376, -0.33658480644226074, 0.5187534093856812, 0.9999961853027344, -0.0018512308597564697, -0.001658247783780098, 0.0011945506557822227, 0.09058451652526855, 0.027371585369110107, -0.01345604658126831, 10.871811866760254, 3.2747373580932617, -1.6267354488372803, -25.45730209350586, -22.803485870361328, 16.42692756652832, -0.76611328125, -0.427001953125, -0.376220703125, 0, 
426, 716073233, 0.41835764050483704, 0.6649781465530396, -0.3389449715614319, 0.517588198184967, 0.9999964833259583, -0.0018567834049463272, -0.0015010498464107513, 0.0011420110240578651, 0.093852698802948, 0.021937966346740723, -0.013643622398376465, 11.263312339782715, 2.622847557067871, -1.649321436882019, -25.533655166625977, -20.641765594482422, 15.704424858093262, -0.7685546875, -0.423583984375, -0.373291015625, 0, 
427, 716081566, 0.41854527592658997, 0.6646014451980591, -0.3410905599594116, 0.5165095329284668, 0.9999969601631165, -0.0018099751323461533, -0.001255042850971222, 0.0011072410270571709, 0.09598702192306519, 0.017789006233215332, -0.013020575046539307, 11.519296646118164, 2.1248421669006348, -1.573135256767273, -24.88996696472168, -17.258787155151367, 15.22628116607666, -0.7685546875, -0.419677734375, -0.375732421875, 0, 
428, 716089899, 0.41880568861961365, 0.6640522480010986, -0.3430509865283966, 0.5157058238983154, 0.999997615814209, -0.0016474369913339615, -0.0009863991290330887, 0.0010337131097912788, 0.0974733829498291, 0.015414178371429443, -0.013888955116271973, 11.697534561157227, 1.8404091596603394, -1.675260066986084, -22.654808044433594, -13.564515113830566, 14.215155601501465, -0.7744140625, -0.416015625, -0.372802734375, 0, 
429, 716098232, 0.41907012462615967, 0.6635483503341675, -0.34467771649360657, 0.5150547623634338, 0.9999982118606567, -0.0015025511384010315, -0.0006626900285482407, 0.0009454367682337761, 0.09794747829437256, 0.014300644397735596, -0.013785243034362793, 11.754687309265137, 1.7075556516647339, -1.659489393234253, -20.662397384643555, -9.113011360168457, 13.001215934753418, -0.77490234375, -0.416015625, -0.375244140625, 0, 
430, 716106565, 0.4193708002567291, 0.6628577709197998, -0.34621885418891907, 0.5146655440330505, 0.9999985098838806, -0.0013748276978731155, -0.0004487670958042145, 0.0009571043774485588, 0.0981554388999939, 0.01080465316772461, -0.011619985103607178, 11.779736518859863, 1.2872473001480103, -1.3979647159576416, -18.906003952026367, -6.171241283416748, 13.161663055419922, -0.77685546875, -0.41259765625, -0.377197265625, 0, 
431, 716114898, 0.4196248948574066, 0.662150502204895, -0.3475390672683716, 0.5144788026809692, 0.9999986886978149, -0.0012687835842370987, -0.0001270398497581482, 0.001008325256407261, 0.10047322511672974, 0.006760299205780029, -0.010954141616821289, 12.0579195022583, 0.8007399439811707, -1.3150582313537598, -17.447731018066406, -1.7469940185546875, 13.866028785705566, -0.775390625, -0.4111328125, -0.379638671875, 0, 
432, 716123231, 0.4199066758155823, 0.6612405776977539, -0.34871238470077515, 0.5146253705024719, 0.9999988675117493, -0.0010792165994644165, 0.00016703922301530838, 0.001024366356432438, 0.09965062141418457, 0.0055814385414123535, -0.009666204452514648, 11.95942497253418, 0.6588329672813416, -1.1572831869125366, -14.840892791748047, 2.2970471382141113, 14.086618423461914, -0.775390625, -0.40625, -0.380615234375, 0, 
433, 716131564, 0.4200536906719208, 0.660476565361023, -0.34971150755882263, 0.5148082375526428, 0.9999990463256836, -0.0009203944355249405, 0.00024412106722593307, 0.0010134438052773476, 0.09843415021896362, 0.0053122639656066895, -0.005587756633758545, 11.813377380371094, 0.6261216402053833, -0.6670851707458496, -12.656842231750488, 3.357041120529175, 13.93641471862793, -0.77490234375, -0.40576171875, -0.381103515625, 0, 
434, 716139897, 0.420202374458313, 0.6596722602844238, -0.35066816210746765, 0.5150673985481262, 0.9999992251396179, -0.0007959958165884018, 0.00023206602782011032, 0.0009601777419447899, 0.10062897205352783, 0.003929018974304199, -0.003467738628387451, 12.076504707336426, 0.46023687720298767, -0.412970632314682, -10.946168899536133, 3.19126558303833, 13.203924179077148, -0.77734375, -0.40625, -0.383544921875, 0, 
435, 716148230, 0.4202924072742462, 0.6590131521224976, -0.3514745831489563, 0.5152879953384399, 0.9999992847442627, -0.00073256716132164, 0.00026843417435884476, 0.0008827643468976021, 0.1029210090637207, 0.0051383376121521, -0.004113256931304932, 12.351693153381348, 0.6059858798980713, -0.489811509847641, -10.073925971984863, 3.6913833618164062, 12.139369010925293, -0.77734375, -0.39990234375, -0.382080078125, 0, 
436, 716156563, 0.4204899072647095, 0.6582657098770142, -0.3521074950695038, 0.5156500339508057, 0.999999463558197, -0.0006013885140419006, 0.0004242612048983574, 0.000745096243917942, 0.1034591794013977, 0.007241189479827881, -0.0046610236167907715, 12.416483879089355, 0.8600143790245056, -0.5535256862640381, -8.27001667022705, 5.834244251251221, 10.246220588684082, -0.781005859375, -0.39892578125, -0.384521484375, 0, 
437, 716164896, 0.42064863443374634, 0.6576566100120544, -0.3523922562599182, 0.5161030888557434, 0.9999995827674866, -0.0003974270075559616, 0.0006325757130980492, 0.0005683870986104012, 0.1041145920753479, 0.009037017822265625, -0.0034962892532348633, 12.495141983032227, 1.0774476528167725, -0.41111573576927185, -5.465233325958252, 8.69888973236084, 7.816197872161865, -0.781005859375, -0.3974609375, -0.385009765625, 0, 
438, 716173229, 0.42092281579971313, 0.6569968461990356, -0.35242047905921936, 0.5167002081871033, 0.9999995827674866, -0.00022041797637939453, 0.0008152732625603676, 0.00037572626024484634, 0.10415428876876831, 0.00841975212097168, -0.002873063087463379, 12.499678611755371, 1.0057361125946045, -0.334248811006546, -3.0310866832733154, 11.211262702941895, 5.16681432723999, -0.774658203125, -0.39599609375, -0.388427734375, 0, 
439, 716181562, 0.4210934042930603, 0.6564599871635437, -0.35213103890419006, 0.5174401998519897, 0.999999463558197, 0.00003276485949754715, 0.0010237069800496101, 0.00026759784668684006, 0.10794836282730103, 0.0063828229904174805, -0.003172636032104492, 12.954917907714844, 0.7624536156654358, -0.3673552870750427, 0.45056724548339844, 14.077546119689941, 3.679882287979126, -0.779052734375, -0.3955078125, -0.390380859375, 0, 
440, 716189895, 0.42131173610687256, 0.6558160781860352, -0.35152581334114075, 0.5184895396232605, 0.9999990463256836, 0.0003095371648669243, 0.0013513406738638878, 0.00017326045781373978, 0.11077028512954712, 0.0017008781433105469, -0.004053175449371338, 13.293645858764648, 0.20168016850948334, -0.46863555908203125, 4.256613254547119, 18.583017349243164, 2.3825981616973877, -0.774169921875, -0.39599609375, -0.396240234375, 0, 
441, 716198228, 0.42141544818878174, 0.6552385687828064, -0.3505493998527527, 0.5197950601577759, 0.9999983906745911, 0.0006171567365527153, 0.0016730474308133125, 0.00009178835898637772, 0.11033493280410767, -0.0007459521293640137, -0.003671705722808838, 13.241436958312988, -0.09100080281496048, -0.4184107780456543, 8.486857414245605, 23.00698471069336, 1.2622318267822266, -0.777587890625, -0.39306640625, -0.395263671875, 0, 
442, 716206561, 0.4214601218700409, 0.6546594500541687, -0.3492145538330078, 0.521384596824646, 0.999997615814209, 0.0010192161425948143, 0.001918562687933445, -0.00000988692045211792, 0.10840052366256714, 0.00025767087936401367, -0.003387749195098877, 13.009345054626465, 0.030645597726106644, -0.38167738914489746, 14.015800476074219, 26.383207321166992, -0.13596045970916748, -0.775146484375, -0.39208984375, -0.392822265625, 0, 
443, 716214894, 0.4213522672653198, 0.6542140245437622, -0.3476329743862152, 0.523084819316864, 0.999997079372406, 0.0012747673317790031, 0.0020379936322569847, -0.00009447522461414337, 0.10673290491104126, 0.0032320022583007812, -0.0021153688430786133, 12.80892276763916, 0.38875260949134827, -0.22827067971229553, 17.530025482177734, 28.02557373046875, -1.2991807460784912, -0.774658203125, -0.396484375, -0.397705078125, 0, 
444, 716223227, 0.42124855518341064, 0.6537611484527588, -0.34577032923698425, 0.5249658823013306, 0.9999963045120239, 0.0015465626493096352, 0.002214430831372738, -0.00019916705787181854, 0.10601329803466797, 0.005596041679382324, -0.003766953945159912, 12.722951889038086, 0.6733995079994202, -0.42493346333503723, 21.267641067504883, 30.45186996459961, -2.738856792449951, -0.777099609375, -0.396484375, -0.400634765625, 0, 
445, 716231560, 0.4210571348667145, 0.6533728241920471, -0.34353065490722656, 0.527069091796875, 0.9999951124191284, 0.0018250541761517525, 0.0025066183879971504, -0.0003445073962211609, 0.10326379537582397, 0.007327437400817871, -0.006225168704986572, 12.393696784973145, 0.8822553753852844, -0.7175544500350952, 25.09734344482422, 34.469913482666016, -4.737514495849609, -0.7685546875, -0.39892578125, -0.405029296875, 0, 
446, 716239893, 0.4208621680736542, 0.6529815196990967, -0.34096524119377136, 0.5293706655502319, 0.9999938607215881, 0.002146734856069088, 0.002721543423831463, -0.0004549119621515274, 0.09880495071411133, 0.008918344974517822, -0.008180856704711914, 11.859225273132324, 1.073551893234253, -0.9517784118652344, 29.520965576171875, 37.42548370361328, -6.255752086639404, -0.767578125, -0.39990234375, -0.409423828125, 0, 
447, 716248226, 0.42052552103996277, 0.6526758074760437, -0.33817020058631897, 0.531802237033844, 0.9999929666519165, 0.0023634759709239006, 0.002856737934052944, -0.0005334131419658661, 0.09198874235153198, 0.011680066585540771, -0.004435479640960693, 11.039836883544922, 1.4063185453414917, -0.5040478706359863, 32.50149917602539, 39.28462600708008, -7.335266590118408, -0.767578125, -0.4033203125, -0.406982421875, 0, 
448, 716256559, 0.4201858639717102, 0.6523855328559875, -0.33544036746025085, 0.5341508388519287, 0.9999933242797852, 0.002386721782386303, 0.002718745730817318, -0.0005003232508897781, 0.08876627683639526, 0.01503753662109375, -0.001822829246520996, 10.652047157287598, 1.8094085454940796, -0.19407400488853455, 32.821163177490234, 37.38701629638672, -6.8802289962768555, -0.76171875, -0.40673828125, -0.412841796875, 0, 
449, 716264892, 0.4196939766407013, 0.6521647572517395, -0.3327960968017578, 0.5364557504653931, 0.9999935626983643, 0.0024053147062659264, 0.002617345191538334, -0.0004451386630535126, 0.08731609582901001, 0.017770230770111084, -0.002733170986175537, 10.478238105773926, 2.136409282684326, -0.3056822121143341, 33.07684326171875, 35.99259567260742, -6.121354103088379, -0.76123046875, -0.40576171875, -0.413818359375, 0, 
450, 716273225, 0.41923433542251587, 0.651955783367157, -0.33030152320861816, 0.5386067032814026, 0.9999943375587463, 0.002307298593223095, 0.002407359890639782, -0.00039326585829257965, 0.0830240249633789, 0.01992398500442505, -0.000022411346435546875, 9.962332725524902, 2.394897222518921, 0.01576155051589012, 31.72896385192871, 33.10496139526367, -5.408020496368408, -0.75927734375, -0.4111328125, -0.41748046875, 0, 
451, 716281558, 0.41866979002952576, 0.6518530249595642, -0.32816243171691895, 0.5404746532440186, 0.9999957084655762, 0.0020971903577446938, 0.002031494863331318, -0.00030201859772205353, 0.08101165294647217, 0.02188199758529663, 0.0007843971252441406, 9.720792770385742, 2.6290862560272217, 0.10836543887853622, 28.83963394165039, 27.936214447021484, -4.153225898742676, -0.7568359375, -0.414306640625, -0.4189453125, 0, 
452, 716289891, 0.4181973934173584, 0.651793897151947, -0.3263830244541168, 0.5419870018959045, 0.999997079372406, 0.0017823120579123497, 0.001606387086212635, -0.0002373475581407547, 0.07954198122024536, 0.023316144943237305, 0.0020011067390441895, 9.544364929199219, 2.800747871398926, 0.25048336386680603, 24.50955581665039, 22.090314865112305, -3.263896942138672, -0.75732421875, -0.411376953125, -0.4189453125, 0, 
453, 716298224, 0.41767221689224243, 0.6518933773040771, -0.3248755633831024, 0.5431767106056213, 0.9999979734420776, 0.001571481116116047, 0.0012150714173913002, -0.0002528000622987747, 0.08272957801818848, 0.023775756359100342, 0.0015567541122436523, 9.926990509033203, 2.8560214042663574, 0.19442075490951538, 21.610292434692383, 16.709108352661133, -3.476391553878784, -0.75537109375, -0.417236328125, -0.42138671875, 0, 
454, 716306557, 0.41735753417015076, 0.6519517302513123, -0.3233415186405182, 0.5442628860473633, 0.999998152256012, 0.001456751488149166, 0.0012136688455939293, -0.00037983618676662445, 0.08818233013153076, 0.021241724491119385, -0.004650115966796875, 10.582009315490723, 2.5523078441619873, -0.5489422678947449, 20.0325870513916, 16.689823150634766, -5.223335266113281, -0.75341796875, -0.416259765625, -0.41943359375, 0, 
455, 716314890, 0.4172147512435913, 0.651949405670166, -0.32163581252098083, 0.5453845858573914, 0.9999978542327881, 0.0013850787654519081, 0.0014317957684397697, -0.0005818847566843033, 0.08975577354431152, 0.01972365379333496, -0.006355106830596924, 10.770832061767578, 2.3721671104431152, -0.7504619359970093, 19.046977996826172, 19.689409255981445, -8.001815795898438, -0.74951171875, -0.417236328125, -0.4228515625, 0, 
456, 716323223, 0.4173605740070343, 0.6518813371658325, -0.31975990533828735, 0.5464564561843872, 0.999997615814209, 0.0012854496017098427, 0.0015644216910004616, -0.000819079577922821, 0.09023243188858032, 0.019716739654541016, -0.0006710290908813477, 10.826504707336426, 2.3748698234558105, -0.06663934886455536, 17.676921844482422, 21.513221740722656, -11.263612747192383, -0.7490234375, -0.421142578125, -0.42626953125, 0, 
457, 716331556, 0.41771411895751953, 0.6518973708152771, -0.31806519627571106, 0.5471557378768921, 0.9999982118606567, 0.0009160982444882393, 0.00129775982350111, -0.0010248813778162003, 0.09029179811477661, 0.02516329288482666, 0.016239404678344727, 10.829811096191406, 3.03261661529541, 1.9601032733917236, 12.59776782989502, 17.84620475769043, -14.093705177307129, -0.7451171875, -0.422119140625, -0.4248046875, 0, 
458, 716339889, 0.4179653525352478, 0.6521180868148804, -0.31670087575912476, 0.5474923253059387, 0.999998927116394, 0.0008230926468968391, 0.0007475828751921654, -0.0009420886635780334, 0.09928691387176514, 0.0197451114654541, 0.008073866367340088, 11.911954879760742, 2.381486654281616, 0.9758297801017761, 11.318795204162598, 10.280417442321777, -12.95517349243164, -0.7451171875, -0.423583984375, -0.42919921875, 0, 
459, 716348222, 0.417823851108551, 0.6523435711860657, -0.3150721490383148, 0.5482710003852844, 0.9999982714653015, 0.0013342620804905891, 0.0010435665026307106, -0.0007417835295200348, 0.11571168899536133, 0.015085279941558838, -0.0049062371253967285, 13.885218620300293, 1.819847583770752, -0.5766739845275879, 18.34816551208496, 14.350650787353516, -10.20067024230957, -0.744140625, -0.426025390625, -0.4267578125, 0, 
460, 716356555, 0.41751107573509216, 0.652274489402771, -0.31301218271255493, 0.5497692823410034, 0.9999966621398926, 0.001817694865167141, 0.0017766216769814491, -0.0005102623254060745, 0.1263086199760437, 0.010586202144622803, -0.00442051887512207, 15.157918930053711, 1.2771947383880615, -0.5058138370513916, 24.99612808227539, 24.431306838989258, -7.016899108886719, -0.7431640625, -0.430419921875, -0.42626953125, 0, 
461, 716364888, 0.4167941212654114, 0.652082622051239, -0.31059110164642334, 0.5519095659255981, 0.9999944567680359, 0.0023936619982123375, 0.002303498797118664, -0.0002458244562149048, 0.12854915857315063, 0.008816003799438477, 0.0010249614715576172, 15.425947189331055, 1.0620718002319336, 0.15597045421600342, 32.916595458984375, 31.676706314086914, -3.3804705142974854, -0.7373046875, -0.430419921875, -0.4306640625, 0, 
