PacketCounter,SampleTimeFine,Quat_W,Quat_X,Quat_Y,Quat_Z,dq_W,dq_X,dq_Y,dq_Z,dv[1],dv[2],dv[3],Acc_X,Acc_Y,Acc_Z,Gyr_X,Gyr_Y,Gyr_Z,Mag_X,Mag_Y,Mag_Z,Status,
0, 10436705, 0.21125216782093048, 0.5897698998451233, -0.008301541209220886, 0.7794071435928345, 0, 0, 0, 0, 0, 0, 0, 0, 0, 0, 0, 0, 0, -0.6611328125, -0.58251953125, -0.351806640625, 0, 
1, 10445038, 0.21079383790493011, 0.5901274681091309, -0.008146991021931171, 0.779262125492096, 0.9999998211860657, 0.00046512018889188766, -0.0003352295607328415, 0.00023238640278577805, 0.07648766040802002, 0.018913328647613525, 0.024644851684570312, 9.180421829223633, 2.2689225673675537, 2.9533164501190186, 6.396117687225342, -4.609921932220459, 3.1956703662872314, -0.66064453125, -0.58203125, -0.352294921875, 0, 
2, 10453371, 0.21039731800556183, 0.590471088886261, -0.008020234294235706, 0.7791102528572083, 0.9999998211860657, 0.0004039360210299492, -0.0003339238464832306, 0.00019942689687013626, 0.07694053649902344, 0.018930494785308838, 0.02465122938156128, 9.234735488891602, 2.2710752487182617, 2.954094409942627, 5.554742336273193, -4.591967582702637, 2.742427110671997, -0.6611328125, -0.58251953125, -0.351318359375, 0, 
3, 10461704, 0.21010129153728485, 0.591180145740509, -0.008668179623782635, 0.778645396232605, 0.9999998807907104, 0.00033570174127817154, -0.00033046863973140717, 0.00016410741955041885, 0.07704108953475952, 0.01885932683944702, 0.024752557277679443, 9.246596336364746, 2.2627108097076416, 2.9667699337005615, 4.616414546966553, -4.544451713562012, 2.2567293643951416, -0.66162109375, -0.583984375, -0.352294921875, 0, 
4, 10470037, 0.20984601974487305, 0.591475784778595, -0.0086021414026618, 0.7784903645515442, 0.9999998807907104, 0.00026306789368391037, -0.0003102123737335205, 0.0001245914027094841, 0.07697302103042603, 0.018928706645965576, 0.024917662143707275, 9.238327026367188, 2.271174907684326, 2.986816883087158, 3.6175880432128906, -4.265897750854492, 1.7133234739303589, -0.662109375, -0.57958984375, -0.345458984375, 0, 
5, 10478370, 0.2095274031162262, 0.5921940803527832, -0.009669340215623379, 0.7780174016952515, 0.9999999403953552, 0.0001967279240489006, -0.00029153376817703247, 0.00008008163422346115, 0.07706809043884277, 0.018555760383605957, 0.02481633424758911, 9.24949836730957, 2.2266383171081543, 2.9752073287963867, 2.7053112983703613, -4.009037494659424, 1.1012457609176636, -0.66455078125, -0.583740234375, -0.349365234375, 0, 
6, 10486703, 0.20940816402435303, 0.592431902885437, -0.009672810323536396, 0.7778684496879578, 0.9999999403953552, 0.0001163659617304802, -0.0002751275897026062, 0.00006125401705503464, 0.07705491781234741, 0.01834052801132202, 0.024887800216674805, 9.247879028320312, 2.2007410526275635, 2.9839627742767334, 1.6002110242843628, -3.7834274768829346, 0.8423370122909546, -0.66259765625, -0.5810546875, -0.347900390625, 0, 
7, 10495036, 0.20898783206939697, 0.5928366184234619, -0.010636776685714722, 0.7776603698730469, 0.9999999403953552, 0.00007355865091085434, -0.000261867418885231, 0.00004784855991601944, 0.0769607424736023, 0.018089890480041504, 0.02440100908279419, 9.236679077148438, 2.170607805252075, 2.925215721130371, 1.0115444660186768, -3.6010794639587402, 0.6579912304878235, -0.66259765625, -0.5810546875, -0.346435546875, 0, 
8, 10503369, 0.2089439332485199, 0.593024492263794, -0.010691340081393719, 0.7775281667709351, 1, 0.00002147909253835678, -0.00023641809821128845, 0.00003681797534227371, 0.07694458961486816, 0.017827868461608887, 0.02449744939804077, 9.234519004821777, 2.139143705368042, 2.937509059906006, 0.29537057876586914, -3.251112461090088, 0.5063037276268005, -0.6650390625, -0.585693359375, -0.347900390625, 0, 
9, 10511702, 0.2085046023130417, 0.5932856798171997, -0.011678431183099747, 0.7774326801300049, 1, -0.00002029724419116974, -0.00022902898490428925, 0.000015103258192539215, 0.07694178819656372, 0.017351984977722168, 0.024677515029907227, 9.234179496765137, 2.082097291946411, 2.9590935707092285, -0.2791183292865753, -3.149501085281372, 0.20769304037094116, -0.6650390625, -0.580078125, -0.346435546875, 0, 
10, 10520035, 0.20852148532867432, 0.5934547781944275, -0.011767817661166191, 0.7772977948188782, 1, -0.00004582852125167847, -0.00022995471954345703, 0.000009828247129917145, 0.07729983329772949, 0.016688644886016846, 0.024309873580932617, 9.27709674835205, 2.002473831176758, 2.9150922298431396, -0.6302125453948975, -3.1622307300567627, 0.13515348732471466, -0.66357421875, -0.5830078125, -0.345947265625, 0, 
11, 10528368, 0.20809219777584076, 0.5936160087585449, -0.012826650403439999, 0.7772728800773621, 1, -0.00006526708602905273, -0.000223502516746521, 0.0000035529956221580505, 0.07749491930007935, 0.01647186279296875, 0.02445918321609497, 9.300490379333496, 1.976455569267273, 2.9330763816833496, -0.8975227475166321, -3.0735034942626953, 0.04885915666818619, -0.6630859375, -0.58251953125, -0.347412109375, 0, 
12, 10536701, 0.20812901854515076, 0.5937561988830566, -0.012922904454171658, 0.7771543860435486, 1, -0.00006904080510139465, -0.00019882619380950928, 0.0000020479783415794373, 0.0779157280921936, 0.016114771366119385, 0.02430403232574463, 9.350653648376465, 1.933701515197754, 2.9154393672943115, -0.9494171142578125, -2.734165668487549, 0.028162851929664612, -0.6640625, -0.58154296875, -0.346435546875, 0, 
13, 10545034, 0.20764587819576263, 0.5938727259635925, -0.014137262478470802, 0.7771734595298767, 1, -0.00005877390503883362, -0.00015801377594470978, -0.000014469027519226074, 0.07763618230819702, 0.01594555377960205, 0.02444666624069214, 9.317166328430176, 1.9135041236877441, 2.9323015213012695, -0.8082316517829895, -2.1729323863983154, -0.19897139072418213, -0.66357421875, -0.58203125, -0.344482421875, 0, 
14, 10553367, 0.20769746601581573, 0.5939600467681885, -0.014187940396368504, 0.7770920395851135, 1, -0.00005304999649524689, -0.00012588687241077423, -0.000028192996978759766, 0.07770276069641113, 0.015654265880584717, 0.02434927225112915, 9.32518482208252, 1.8787528276443481, 2.920383930206299, -0.7295190095901489, -1.731137990951538, -0.3876970410346985, -0.66455078125, -0.5810546875, -0.345947265625, 0, 
15, 10561700, 0.20694684982299805, 0.5940414071083069, -0.015233227983117104, 0.7772104144096375, 1, -0.00004662945866584778, -0.00010186806321144104, -0.00004320405423641205, 0.07761865854263306, 0.01576465368270874, 0.024544894695281982, 9.31460952758789, 1.8918343782424927, 2.945504903793335, -0.6412268280982971, -1.400842547416687, -0.5941221714019775, -0.6640625, -0.578125, -0.348388671875, 0, 
16, 10570033, 0.20701418817043304, 0.594109296798706, -0.015262546949088573, 0.7771400213241577, 1, -0.00004987791180610657, -0.00009962357580661774, -0.000050591304898262024, 0.07778549194335938, 0.015764892101287842, 0.023995161056518555, 9.335012435913086, 1.8925169706344604, 2.877871036529541, -0.6858980655670166, -1.3699774742126465, -0.6957082748413086, -0.6669921875, -0.579833984375, -0.346923828125, 0, 
17, 10578366, 0.20659397542476654, 0.5941463708877563, -0.016514837741851807, 0.7771977186203003, 1, -0.000060774385929107666, -0.00008931197226047516, -0.00003865174949169159, 0.0775151252746582, 0.01593959331512451, 0.024043500423431396, 9.302186012268066, 1.9128276109695435, 2.8853352069854736, -0.8357413411140442, -1.2281769514083862, -0.5315210223197937, -0.6640625, -0.58251953125, -0.347412109375, 0, 
18, 10586699, 0.2066686749458313, 0.5941928625106812, -0.01656455174088478, 0.7771412134170532, 1, -0.00007435493171215057, -0.00007880665361881256, -0.0000408906489610672, 0.07745963335037231, 0.015990138053894043, 0.024276018142700195, 9.295527458190918, 1.918893814086914, 2.913238525390625, -1.0224945545196533, -1.0837126970291138, -0.5623092651367188, -0.66162109375, -0.5810546875, -0.343994140625, 0, 
19, 10595032, 0.2061450034379959, 0.5942443609237671, -0.017572952434420586, 0.7772188782691956, 1, -0.00007615052163600922, -0.00006713904440402985, -0.00004688091576099396, 0.07743394374847412, 0.01611649990081787, 0.024479329586029053, 9.292444229125977, 1.9340572357177734, 2.9376368522644043, -1.0471868515014648, -0.9232650399208069, -0.6446846723556519, -0.6611328125, -0.57958984375, -0.347412109375, 0, 
20, 10603365, 0.20622465014457703, 0.5942807197570801, -0.01763055846095085, 0.7771686315536499, 1, -0.000085415318608284, -0.00006864778697490692, -0.0000387243926525116, 0.07771104574203491, 0.01610434055328369, 0.024545133113861084, 9.325697898864746, 1.9325979948043823, 2.945533514022827, -1.1745918989181519, -0.9440127015113831, -0.5325199961662292, -0.6630859375, -0.5830078125, -0.347900390625, 0, 
21, 10611698, 0.20585191249847412, 0.5943033695220947, -0.018587345257401466, 0.7772278785705566, 1, -0.00009247474372386932, -0.00006405450403690338, -0.000021182000637054443, 0.07791322469711304, 0.01609140634536743, 0.02471858263015747, 9.349960327148438, 1.9310458898544312, 2.96634840965271, -1.2716699838638306, -0.8808478713035583, -0.29128506779670715, -0.66455078125, -0.580078125, -0.349365234375, 0, 
22, 10620031, 0.20591697096824646, 0.5943134427070618, -0.01867556944489479, 0.7772008776664734, 1, -0.00010570511221885681, -0.00004085339605808258, -0.000003900378942489624, 0.0783572793006897, 0.01604241132736206, 0.024631261825561523, 9.40324878692627, 1.9251662492752075, 2.95586895942688, -1.4536077976226807, -0.5617969632148743, -0.053636204451322556, -0.66015625, -0.58203125, -0.351806640625, 0, 
23, 10628364, 0.2056281417608261, 0.5942769646644592, -0.01954997144639492, 0.7772836685180664, 1, -0.00011067278683185577, -0.000022120773792266846, -9.480863809585571e-7, 0.07845193147659302, 0.016144931316375732, 0.024718284606933594, 9.414608001708984, 1.9374691247940063, 2.9663126468658447, -1.521920919418335, -0.3041946589946747, -0.013037645258009434, -0.6630859375, -0.58544921875, -0.348388671875, 0, 
24, 10636697, 0.20567850768566132, 0.5942607522010803, -0.019644778221845627, 0.7772803902626038, 1, -0.00010698288679122925, -0.000007893890142440796, 0.000016757287085056305, 0.07852959632873535, 0.015819549560546875, 0.02484142780303955, 9.423928260803223, 1.8984217643737793, 2.9810903072357178, -1.4711792469024658, -0.10855312645435333, 0.2304384410381317, -0.66357421875, -0.58154296875, -0.345947265625, 0, 
25, 10645030, 0.20527005195617676, 0.5942045450210571, -0.020320678129792213, 0.7774138450622559, 1, -0.00010789930820465088, 0.0000021336600184440613, 0.00002102646976709366, 0.0783621072769165, 0.015598714351654053, 0.024861633777618408, 9.403828620910645, 1.8719204664230347, 2.9835152626037598, -1.4837814569473267, 0.02934110537171364, 0.2891462743282318, -0.66552734375, -0.582763671875, -0.348876953125, 0, 
26, 10653363, 0.20530438423156738, 0.5941883325576782, -0.02040494605898857, 0.7774150371551514, 1, -0.00008917786180973053, -0.000003252178430557251, 0.000023807398974895477, 0.07812857627868652, 0.015161514282226562, 0.02448827028274536, 9.37580394744873, 1.819454312324524, 2.9387097358703613, -1.2263327836990356, -0.04472244903445244, 0.32738831639289856, -0.662109375, -0.58203125, -0.347900390625, 0, 
27, 10661696, 0.20489726960659027, 0.594152569770813, -0.021009787917137146, 0.7775336503982544, 1, -0.000055886805057525635, -0.000026520341634750366, 0.00003800634294748306, 0.07801961898803711, 0.014710545539855957, 0.024325847625732422, 9.362728118896484, 1.7653359174728394, 2.9192183017730713, -0.76852947473526, -0.3646954894065857, 0.5226457118988037, -0.66259765625, -0.58056640625, -0.348388671875, 0, 
28, 10670029, 0.2048647105693817, 0.5941848754882812, -0.021060673519968987, 0.7775161266326904, 1, -0.000013893470168113708, -0.00004659034311771393, 0.00005108024924993515, 0.07779252529144287, 0.014732778072357178, 0.024249136447906494, 9.335474967956543, 1.768004059791565, 2.9100124835968018, -0.19105657935142517, -0.6406888365745544, 0.7024319767951965, -0.66015625, -0.580078125, -0.348388671875, 0, 
29, 10678362, 0.20443572103977203, 0.5942066311836243, -0.02162681519985199, 0.7775968313217163, 1, 0.00002149399369955063, -0.00007595866918563843, 0.00005824584513902664, 0.07776260375976562, 0.014509499073028564, 0.023999512195587158, 9.33188533782959, 1.7412093877792358, 2.880056381225586, 0.29557543992996216, -1.0445483922958374, 0.8009698390960693, -0.66552734375, -0.578125, -0.348876953125, 0, 
30, 10686695, 0.20434162020683289, 0.594290554523468, -0.021652888506650925, 0.7775567173957825, 1, 0.00005207676440477371, -0.00009647011756896973, 0.00007840525358915329, 0.07765763998031616, 0.014774501323699951, 0.023544371128082275, 9.319964408874512, 1.7720532417297363, 2.8238110542297363, 0.716135561466217, -1.3266123533248901, 1.0781927108764648, -0.66455078125, -0.58203125, -0.347900390625, 0, 
31, 10695028, 0.203882098197937, 0.5943666100502014, -0.022184062749147415, 0.7776044011116028, 1, 0.00009391177445650101, -0.0001158490777015686, 0.00008360203355550766, 0.07768517732620239, 0.014812886714935303, 0.02403092384338379, 9.323084831237793, 1.7770981788635254, 2.882554292678833, 1.2914313077926636, -1.5931029319763184, 1.1496565341949463, -0.66357421875, -0.58056640625, -0.347412109375, 0, 
32, 10703361, 0.20373302698135376, 0.5944976806640625, -0.02216428704559803, 0.777543842792511, 1, 0.0001294231042265892, -0.00013724341988563538, 0.0000887131318449974, 0.07747423648834229, 0.014985501766204834, 0.023446977138519287, 9.297654151916504, 1.7980159521102905, 2.8127148151397705, 1.7797667980194092, -1.887308120727539, 1.2199419736862183, -0.6650390625, -0.58154296875, -0.347412109375, 0, 
33, 10711694, 0.20310279726982117, 0.5946518182754517, -0.02251260168850422, 0.7775808572769165, 1, 0.00015387218445539474, -0.00017450377345085144, 0.0000830749049782753, 0.07753133773803711, 0.015039622783660889, 0.023604094982147217, 9.304760932922363, 1.8044973611831665, 2.830747604370117, 2.1159791946411133, -2.39969539642334, 1.142407774925232, -0.6611328125, -0.58056640625, -0.346923828125, 0, 
34, 10720027, 0.20293201506137848, 0.5948252081871033, -0.022458430379629135, 0.7774943709373474, 0.9999999403953552, 0.0001770881935954094, -0.00017909519374370575, 0.00007878709584474564, 0.07769429683685303, 0.015215814113616943, 0.023462951183319092, 9.324243545532227, 1.825769066810608, 2.8139607906341553, 2.435234785079956, -2.462834119796753, 1.0834436416625977, -0.6640625, -0.58154296875, -0.345458984375, 0, 
35, 10728360, 0.202500119805336, 0.5949974060058594, -0.022881655022501945, 0.7774627804756165, 0.9999999403953552, 0.00019915681332349777, -0.00017223134636878967, 0.00007911492139101028, 0.07809096574783325, 0.015516996383666992, 0.023698091506958008, 9.372044563293457, 1.861905813217163, 2.841536521911621, 2.7387120723724365, -2.368445873260498, 1.08795166015625, -0.66552734375, -0.57763671875, -0.343505859375, 0, 
36, 10736693, 0.202307790517807, 0.5951600074768066, -0.02279466576874256, 0.7773909568786621, 0.9999999403953552, 0.00021349918097257614, -0.00015593133866786957, 0.0000790981575846672, 0.07837909460067749, 0.015894830226898193, 0.023750901222229004, 9.40656566619873, 1.9072957038879395, 2.8480217456817627, 2.9359421730041504, -2.1442956924438477, 1.087721347808838, -0.66259765625, -0.580078125, -0.345947265625, 0, 
37, 10745026, 0.2017662525177002, 0.595321774482727, -0.023049144074320793, 0.7774004340171814, 0.9999999403953552, 0.00021147262305021286, -0.00013473257422447205, 0.00007081311196088791, 0.07846647500991821, 0.01604515314102173, 0.023763418197631836, 9.416810035705566, 1.9254390001296997, 2.850252866744995, 2.908073902130127, -1.8527802228927612, 0.9737892746925354, -0.66455078125, -0.5810546875, -0.347412109375, 0, 
38, 10753359, 0.20158983767032623, 0.5954429507255554, -0.022955259308218956, 0.7773562073707581, 1, 0.00020163971930742264, -0.00010551139712333679, 0.00006910134106874466, 0.07840090990066528, 0.016258537769317627, 0.023811161518096924, 9.408944129943848, 1.9510248899459839, 2.8559932708740234, 2.7728562355041504, -1.4509440660476685, 0.9502497315406799, -0.666015625, -0.58056640625, -0.345458984375, 0, 
39, 10761692, 0.20128951966762543, 0.5955492258071899, -0.02332047000527382, 0.7773415446281433, 1, 0.0001816069707274437, -0.00006884709000587463, 0.00007290299981832504, 0.07838034629821777, 0.016593754291534424, 0.023862183094024658, 9.406253814697266, 1.9912152290344238, 2.862877607345581, 2.497375249862671, -0.9467534422874451, 1.002528429031372, -0.6640625, -0.58154296875, -0.343505859375, 0, 
40, 10770025, 0.20113015174865723, 0.595604419708252, -0.02323567494750023, 0.7773430943489075, 1, 0.0001721726730465889, -0.0000285319983959198, 0.0000719679519534111, 0.07805091142654419, 0.01662355661392212, 0.023879945278167725, 9.36667251586914, 1.9947552680969238, 2.86519718170166, 2.3676390647888184, -0.39235883951187134, 0.9896699786186218, -0.66259765625, -0.58203125, -0.345947265625, 0, 
41, 10778358, 0.20052818953990936, 0.5956697463989258, -0.023290691897273064, 0.7774469256401062, 1, 0.00015615392476320267, -0.000004757195711135864, 0.00007399823516607285, 0.07773375511169434, 0.016561031341552734, 0.023859083652496338, 9.328583717346191, 1.987160325050354, 2.8628506660461426, 2.1473567485809326, -0.06541875749826431, 1.0175895690917969, -0.66357421875, -0.580078125, -0.343505859375, 0, 
42, 10786691, 0.20039451122283936, 0.5956878066062927, -0.023221172392368317, 0.7774696946144104, 1, 0.00013802293688058853, 0.000010398216545581818, 0.00006618257611989975, 0.07714307308197021, 0.016682922840118408, 0.023936092853546143, 9.257668495178223, 2.0017569065093994, 2.872218132019043, 1.8980276584625244, 0.14299146831035614, 0.9101121425628662, -0.6640625, -0.58154296875, -0.345947265625, 0, 
43, 10795024, 0.19999605417251587, 0.5957226753234863, -0.023360731080174446, 0.7775413393974304, 1, 0.00013272184878587723, 0.00002116616815328598, 0.00007129553705453873, 0.07685679197311401, 0.016575992107391357, 0.024136066436767578, 9.223286628723145, 1.988846778869629, 2.896355152130127, 1.8251293897628784, 0.29106733202934265, 0.9804232120513916, -0.66357421875, -0.580078125, -0.345947265625, 0, 
44, 10803357, 0.19985781610012054, 0.5957401990890503, -0.02329854667186737, 0.7775653004646301, 1, 0.00013497378677129745, 0.000009845010936260223, 0.00007419195026159286, 0.07663184404373169, 0.016361773014068604, 0.024429678916931152, 9.196333885192871, 1.9631328582763672, 2.9314606189727783, 1.8560971021652222, 0.13538403809070587, 1.020253300666809, -0.66552734375, -0.5810546875, -0.344482421875, 0, 
45, 10811690, 0.19974087178707123, 0.595782995223999, -0.023593846708536148, 0.7775536775588989, 1, 0.00013274606317281723, -0.000008288770914077759, 0.00006988178938627243, 0.07638674974441528, 0.01612842082977295, 0.024310052394866943, 9.166986465454102, 1.9351532459259033, 2.9168834686279297, 1.8254625797271729, -0.11398335546255112, 0.9609821438789368, -0.6630859375, -0.57861328125, -0.343994140625, 0, 
46, 10820023, 0.19959911704063416, 0.595833420753479, -0.02352887950837612, 0.7775533199310303, 1, 0.00014519784599542618, -0.000029668211936950684, 0.00006955023854970932, 0.07640260457992554, 0.016137778759002686, 0.024136364459991455, 9.168923377990723, 1.9363692998886108, 2.895864248275757, 1.996693730354309, -0.40798357129096985, 0.956422746181488, -0.6630859375, -0.5830078125, -0.344970703125, 0, 
47, 10828356, 0.1993710845708847, 0.5959093570709229, -0.023702720180153847, 0.7775484323501587, 1, 0.00014297757297754288, -0.0000608786940574646, 0.00007305573672056198, 0.07665103673934937, 0.015905439853668213, 0.02429407835006714, 9.198812484741211, 1.9084709882736206, 2.9145638942718506, 1.9661614894866943, -0.8371756672859192, 1.0046287775039673, -0.66748046875, -0.580810546875, -0.343505859375, 0, 
48, 10836689, 0.19921211898326874, 0.5959867835044861, -0.02364484779536724, 0.7775316834449768, 1, 0.00015495996922254562, -0.0000622924417257309, 0.00008323881775140762, 0.07691848278045654, 0.01614457368850708, 0.02436584234237671, 9.230879783630371, 1.937156319618225, 2.923269033432007, 2.1309380531311035, -0.8566168546676636, 1.144661784172058, -0.66259765625, -0.5830078125, -0.344970703125, 0, 
49, 10845022, 0.1988593339920044, 0.5960598587989807, -0.023693742230534554, 0.7775644063949585, 1, 0.0001626061275601387, -0.000059096142649650574, 0.00008376967161893845, 0.07758015394210815, 0.016301870346069336, 0.024249374866485596, 9.310260772705078, 1.9560552835464478, 2.9093406200408936, 2.236084222793579, -0.8126627206802368, 1.1519618034362793, -0.66552734375, -0.58056640625, -0.342529296875, 0, 
50, 10853355, 0.1986922323703766, 0.5961278080940247, -0.02364157885313034, 0.7775566577911377, 1, 0.00015376415103673935, -0.00005090050399303436, 0.0000949883833527565, 0.07803255319595337, 0.01661604642868042, 0.02439337968826294, 9.364566802978516, 1.99363374710083, 2.9266602993011475, 2.1144936084747314, -0.6999601721763611, 1.3062363862991333, -0.666015625, -0.580078125, -0.342041015625, 0, 
51, 10861688, 0.1983916163444519, 0.5961660146713257, -0.023724570870399475, 0.7776014804840088, 1, 0.00012931320816278458, -0.00003170780837535858, 0.00010076630860567093, 0.07837414741516113, 0.017076969146728516, 0.02415698766708374, 9.40559196472168, 2.048705816268921, 2.8983521461486816, 1.7782553434371948, -0.4360311031341553, 1.38569176197052, -0.66748046875, -0.580322265625, -0.342529296875, 0, 
52, 10870021, 0.1982501745223999, 0.5961974263191223, -0.023717595264315605, 0.7776136994361877, 1, 0.00009649340063333511, -0.000019041821360588074, 0.00010675471276044846, 0.07841509580612183, 0.017177999019622803, 0.024496853351593018, 9.410577774047852, 2.060422420501709, 2.9392056465148926, 1.3269325494766235, -0.26185429096221924, 1.4680414199829102, -0.66552734375, -0.57958984375, -0.342041015625, 0, 
53, 10878354, 0.19803863763809204, 0.5961857438087463, -0.023850902915000916, 0.777672529220581, 1, 0.000060939230024814606, 0.00001277681440114975, 0.00010323058813810349, 0.07811480760574341, 0.017320096492767334, 0.024431884288787842, 9.374150276184082, 2.0784943103790283, 2.931943655014038, 0.8380081057548523, 0.175700843334198, 1.419579267501831, -0.6669921875, -0.57958984375, -0.341552734375, 0, 
54, 10886687, 0.19794553518295288, 0.5961650609970093, -0.023884734138846397, 0.777711033821106, 1, 0.000026290304958820343, 0.000030170194804668427, 0.00009978469461202621, 0.07771831750869751, 0.017034590244293213, 0.024379253387451172, 9.326570510864258, 2.0442323684692383, 2.9256272315979004, 0.3615321218967438, 0.41488656401634216, 1.3721928596496582, -0.66796875, -0.576416015625, -0.343994140625, 0, 
55, 10895020, 0.19763721525669098, 0.5961368083953857, -0.02390587329864502, 0.7778105139732361, 1, 0.000008312053978443146, 0.000025044195353984833, 0.00008837040513753891, 0.07739615440368652, 0.01686805486679077, 0.02420598268508911, 9.287909507751465, 2.024247407913208, 2.9048337936401367, 0.11430352181196213, 0.34439617395401, 1.2152289152145386, -0.66748046875, -0.578857421875, -0.343505859375, 0, 
56, 10903353, 0.19758683443069458, 0.5961047410964966, -0.023958319798111916, 0.7778463363647461, 1, -0.000016041100025177002, 0.00003485288470983505, 0.00007750559598207474, 0.07740002870559692, 0.01655369997024536, 0.02454894781112671, 9.288373947143555, 1.9865232706069946, 2.945991277694702, -0.2205898016691208, 0.4792807698249817, 1.0658211708068848, -0.666015625, -0.58203125, -0.344482421875, 0, 
57, 10911686, 0.1975342333316803, 0.5960488319396973, -0.024116013199090958, 0.7778974771499634, 1, -0.000024495646357536316, 0.00004262756556272507, 0.00005605723708868027, 0.07736825942993164, 0.01649373769760132, 0.02441847324371338, 9.284562110900879, 1.9793275594711304, 2.9303338527679443, -0.3368528485298157, 0.5861945748329163, 0.7708733081817627, -0.66796875, -0.577880859375, -0.344482421875, 0, 
58, 10920019, 0.1975257843732834, 0.5960097312927246, -0.024156814441084862, 0.7779282927513123, 1, -0.00003345124423503876, 0.00004052650183439255, 0.00003693532198667526, 0.07730764150619507, 0.01640915870666504, 0.024519145488739014, 9.277287483215332, 1.9691777229309082, 2.9424149990081787, -0.4600060284137726, 0.5573017001152039, 0.5079174637794495, -0.66650390625, -0.582763671875, -0.342529296875, 0, 
59, 10928352, 0.1974795013666153, 0.5959576368331909, -0.024286530911922455, 0.7779759764671326, 1, -0.000040881335735321045, 0.000030308030545711517, 0.000037400983273983, 0.07727938890457153, 0.016571521759033203, 0.02466219663619995, 9.273897171020508, 1.9886620044708252, 2.9595818519592285, -0.5621811747550964, 0.41678205132484436, 0.514320969581604, -0.6650390625, -0.58154296875, -0.344482421875, 0, 
60, 10936685, 0.19748477637767792, 0.5959267616271973, -0.024333350360393524, 0.777996838092804, 1, -0.000045008957386016846, 0.000027284957468509674, 0.000027670525014400482, 0.07692539691925049, 0.01657921075820923, 0.02444368600845337, 9.231415748596191, 1.9895846843719482, 2.933359384536743, -0.618942379951477, 0.37521010637283325, 0.3805122673511505, -0.66552734375, -0.580078125, -0.345458984375, 0, 
61, 10945018, 0.19737082719802856, 0.595869243144989, -0.024393314495682716, 0.778067946434021, 1, -0.0000620279461145401, 0.000030829571187496185, 0.000030145980417728424, 0.0767095685005188, 0.016573011875152588, 0.024314820766448975, 9.20551586151123, 1.9888408184051514, 2.9178950786590576, -0.8529796004295349, 0.42395398020744324, 0.41455355286598206, -0.66357421875, -0.5810546875, -0.347412109375, 0, 
62, 10953351, 0.1973985731601715, 0.5958438515663147, -0.024464882910251617, 0.778078019618988, 1, -0.00007669813930988312, 0.000012370757758617401, 0.000022712163627147675, 0.07663202285766602, 0.016565382480621338, 0.02426159381866455, 9.196209907531738, 1.9879252910614014, 2.9115076065063477, -1.0547171831130981, 0.17011693120002747, 0.31232714653015137, -0.6669921875, -0.580322265625, -0.346435546875, 0, 
63, 10961684, 0.19764527678489685, 0.5957947373390198, -0.024792717769742012, 0.7780426740646362, 1, -0.00008162669837474823, -0.0000018998980522155762, 0.00002544652670621872, 0.07655113935470581, 0.0164334774017334, 0.02397853136062622, 9.186503410339355, 1.9720959663391113, 2.8775386810302734, -1.1224926710128784, -0.026126520708203316, 0.3499288856983185, -0.66796875, -0.580810546875, -0.347412109375, 0, 
64, 10970017, 0.19769525527954102, 0.5957792401313782, -0.024881739169359207, 0.7780389785766602, 1, -0.0001018773764371872, -0.000006413087248802185, 0.000012728385627269745, 0.07670730352401733, 0.016441762447357178, 0.024177134037017822, 9.205244064331055, 1.9730902910232544, 2.901371955871582, -1.4009705781936646, -0.08818981051445007, 0.17503486573696136, -0.66650390625, -0.57958984375, -0.343994140625, 0, 
65, 10978350, 0.19768759608268738, 0.5957444310188293, -0.02500203438103199, 0.7780638337135315, 1, -0.00012136436998844147, -0.000018494203686714172, 0.000012204982340335846, 0.07704269886016846, 0.016264498233795166, 0.02420753240585327, 9.245644569396973, 1.9509063959121704, 2.90514874458313, -1.6689467430114746, -0.25432372093200684, 0.1678372621536255, -0.66552734375, -0.57861328125, -0.348388671875, 0, 
66, 10986683, 0.19774377346038818, 0.5957355499267578, -0.02512158639729023, 0.7780525088310242, 1, -0.0001279730349779129, -0.00002197548747062683, 0.000024543143808841705, 0.077181875705719, 0.01634693145751953, 0.024190664291381836, 9.262385368347168, 1.9606881141662598, 2.903076648712158, -1.7598259449005127, -0.302196741104126, 0.337505966424942, -0.6650390625, -0.5791015625, -0.347412109375, 0, 
67, 10995016, 0.19783833622932434, 0.5956881642341614, -0.025353549048304558, 0.7780571579933167, 1, -0.00014690496027469635, -0.00001477263867855072, 0.00004203524440526962, 0.07718455791473389, 0.016155779361724854, 0.024376392364501953, 9.262674331665039, 1.9377351999282837, 2.925471305847168, -2.0201690196990967, -0.20314648747444153, 0.5780492424964905, -0.6669921875, -0.578857421875, -0.346923828125, 0, 
68, 11003349, 0.19788824021816254, 0.5956677198410034, -0.025508975610136986, 0.7780550122261047, 1, -0.00015398673713207245, -0.000014806166291236877, 0.00005292985588312149, 0.07686275243759155, 0.0158693790435791, 0.024294257164001465, 9.224059104919434, 1.9033567905426025, 2.9156017303466797, -2.1175544261932373, -0.20360754430294037, 0.7278668284416199, -0.66552734375, -0.5791015625, -0.345947265625, 0, 
69, 11011682, 0.19787675142288208, 0.5956035852432251, -0.02567734569311142, 0.7781015634536743, 1, -0.00017760321497917175, 0.000002962537109851837, 0.00005740765482187271, 0.07675594091415405, 0.0157468318939209, 0.02419257164001465, 9.211165428161621, 1.8888018131256104, 2.903534173965454, -2.442317485809326, 0.04073943942785263, 0.7894435524940491, -0.66357421875, -0.5791015625, -0.345947265625, 0, 
70, 11020015, 0.197941392660141, 0.5955614447593689, -0.025869008153676987, 0.7781110405921936, 1, -0.00019471719861030579, 0.0000023646280169487, 0.0000659869983792305, 0.0768938660621643, 0.015515148639678955, 0.024259865283966064, 9.227714538574219, 1.8610631227493286, 2.9115703105926514, -2.677661180496216, 0.03251727297902107, 0.907422661781311, -0.6640625, -0.57958984375, -0.346923828125, 0, 
71, 11028348, 0.1979926973581314, 0.5954719185829163, -0.026099445298314095, 0.7781586647033691, 1, -0.00019839592278003693, 0.0000264802947640419, 0.00007031392306089401, 0.07704782485961914, 0.015493810176849365, 0.024218440055847168, 9.246180534362793, 1.8577066659927368, 2.9071412086486816, -2.7282488346099854, 0.36414477229118347, 0.9669244885444641, -0.66796875, -0.577880859375, -0.346923828125, 0, 
72, 11036681, 0.1980554312467575, 0.59539395570755, -0.02630065381526947, 0.7781956791877747, 1, -0.0002073105424642563, 0.00004468206316232681, 0.0000794706866145134, 0.07697159051895142, 0.015352189540863037, 0.024261295795440674, 9.236977577209473, 1.840781807899475, 2.912395477294922, -2.8508386611938477, 0.6144469976425171, 1.0928441286087036, -0.666015625, -0.57568359375, -0.349365234375, 0, 
73, 11045014, 0.19817250967025757, 0.5952886343002319, -0.02659883350133896, 0.7782362699508667, 1, -0.00020597875118255615, 0.00004052836447954178, 0.00008567888289690018, 0.07691037654876709, 0.01540607213973999, 0.02418309450149536, 9.22966194152832, 1.8471922874450684, 2.9029619693756104, -2.832524538040161, 0.557327389717102, 1.1782163381576538, -0.666015625, -0.578857421875, -0.347412109375, 0, 
74, 11053347, 0.19824577867984772, 0.5952264070510864, -0.026806144043803215, 0.7782581448554993, 1, -0.0002155732363462448, 0.000022516585886478424, 0.00007150601595640182, 0.07694631814956665, 0.015264153480529785, 0.024654030799865723, 9.234000205993652, 1.8302861452102661, 2.959291458129883, -2.964463472366333, 0.3096376657485962, 0.9833176136016846, -0.666015625, -0.5771484375, -0.345458984375, 0, 
75, 11061680, 0.19818080961704254, 0.5951536297798157, -0.026992380619049072, 0.7783239483833313, 1, -0.00022003240883350372, 0.000002485699951648712, 0.00009759608656167984, 0.07691407203674316, 0.015256345272064209, 0.024435460567474365, 9.230233192443848, 1.8292442560195923, 2.932810068130493, -3.0257842540740967, 0.03418219834566116, 1.3420963287353516, -0.66552734375, -0.578857421875, -0.349365234375, 0, 
76, 11070013, 0.19823572039604187, 0.5951038599014282, -0.02723289281129837, 0.7783397436141968, 0.9999999403953552, -0.000228099524974823, 0.00000218953937292099, 0.00010396819561719894, 0.07690280675888062, 0.015580356121063232, 0.024257242679595947, 9.228883743286133, 1.8681775331497192, 2.9114086627960205, -3.1367197036743164, 0.03010953590273857, 1.429722785949707, -0.6689453125, -0.575927734375, -0.350830078125, 0, 
77, 11078346, 0.19818641245365143, 0.5950400829315186, -0.027475588023662567, 0.7783925533294678, 0.9999999403953552, -0.0002293456345796585, -0.000016083940863609314, 0.00012835580855607986, 0.07683771848678589, 0.016013622283935547, 0.024537265300750732, 9.221147537231445, 1.920113444328308, 2.944840669631958, -3.153855562210083, -0.22117893397808075, 1.7650898694992065, -0.66162109375, -0.57470703125, -0.351318359375, 0, 
78, 11086679, 0.1982232928276062, 0.5950021147727966, -0.027756527066230774, 0.7784022688865662, 0.9999999403953552, -0.00024680979549884796, -0.000019175931811332703, 0.00014051888138055801, 0.07697266340255737, 0.016061007976531982, 0.025104641914367676, 9.23745059967041, 1.9251453876495361, 3.0130069255828857, -3.3940141201019287, -0.2636985182762146, 1.9323506355285645, -0.6689453125, -0.576416015625, -0.347412109375, 0, 
79, 11095012, 0.1981547325849533, 0.5949423313140869, -0.028036458417773247, 0.7784551382064819, 0.9999999403953552, -0.0002770461142063141, -0.00003374926745891571, 0.00015910807996988297, 0.07729893922805786, 0.016433894634246826, 0.024798095226287842, 9.276601791381836, 1.9701534509658813, 2.9760923385620117, -3.8098104000091553, -0.4641043543815613, 2.187980890274048, -0.66552734375, -0.576416015625, -0.350830078125, 0, 
80, 11103345, 0.19820648431777954, 0.5949080586433411, -0.02838737890124321, 0.778455376625061, 0.9999999403953552, -0.00030945055186748505, -0.00004118122160434723, 0.00016851909458637238, 0.07767349481582642, 0.01651376485824585, 0.024811923503875732, 9.321624755859375, 1.979370355606079, 2.977766990661621, -4.255420684814453, -0.5663051605224609, 2.317396879196167, -0.6708984375, -0.574951171875, -0.350830078125, 0, 
81, 11111678, 0.19838619232177734, 0.594828724861145, -0.02889382280409336, 0.7784517407417297, 0.9999999403953552, -0.00035173259675502777, -0.00004057399928569794, 0.00017439480870962143, 0.07789832353591919, 0.01657736301422119, 0.02499544620513916, 9.348620414733887, 1.986794352531433, 2.9998791217803955, -4.836864471435547, -0.5579549074172974, 2.3981969356536865, -0.66796875, -0.575439453125, -0.352294921875, 0, 
82, 11120011, 0.19847312569618225, 0.5947875380516052, -0.02930673211812973, 0.7784456014633179, 0.9999999403953552, -0.00037978775799274445, -0.00005078129470348358, 0.000177101232111454, 0.07800024747848511, 0.016532301902770996, 0.025197982788085938, 9.360909461975098, 1.9811393022537231, 3.0241572856903076, -5.222666263580322, -0.6983209252357483, 2.4354143142700195, -0.66455078125, -0.576171875, -0.353759765625, 0, 
83, 11128344, 0.19863584637641907, 0.5947049856185913, -0.029811205342411995, 0.7784481644630432, 0.9999998807907104, -0.00042384490370750427, -0.000052442774176597595, 0.00016821455210447311, 0.07811272144317627, 0.01639235019683838, 0.025079429149627686, 9.374384880065918, 1.9643362760543823, 3.0099899768829346, -5.82852029800415, -0.7211688160896301, 2.313209056854248, -0.66748046875, -0.575439453125, -0.351318359375, 0, 
84, 11136677, 0.19878950715065002, 0.594663143157959, -0.030265003442764282, 0.7784233689308167, 0.9999998807907104, -0.00045186281204223633, -0.00006755441427230835, 0.00014576967805624008, 0.07791608572006226, 0.015935063362121582, 0.024981677532196045, 9.350802421569824, 1.9094667434692383, 2.998161792755127, -6.213808536529541, -0.9289771318435669, 2.0045571327209473, -0.66552734375, -0.576171875, -0.349365234375, 0, 
85, 11145010, 0.19900155067443848, 0.5946030616760254, -0.0307819452136755, 0.7783945798873901, 0.9999998807907104, -0.00048255547881126404, -0.00009574554860591888, 0.0001283464953303337, 0.07801592350006104, 0.015995383262634277, 0.024908006191253662, 9.362836837768555, 1.9167792797088623, 2.9891109466552734, -6.635879993438721, -1.3166484832763672, 1.76496160030365, -0.668701171875, -0.572509765625, -0.356201171875, 0, 
86, 11153343, 0.19920608401298523, 0.5945894122123718, -0.031251609325408936, 0.7783339619636536, 0.9999998807907104, -0.0004897173494100571, -0.00011227652430534363, 0.00010765437036752701, 0.07819205522537231, 0.01594918966293335, 0.02486032247543335, 9.383971214294434, 1.911468744277954, 2.9832396507263184, -6.734367370605469, -1.5439749956130981, 1.4804131984710693, -0.669677734375, -0.571533203125, -0.357177734375, 0, 
87, 11161676, 0.19948461651802063, 0.5945497751235962, -0.03179062902927399, 0.7782712578773499, 0.9999998807907104, -0.000506846234202385, -0.0001289714127779007, 0.00009429734200239182, 0.07831603288650513, 0.01575404405593872, 0.024490416049957275, 9.398828506469727, 1.888304352760315, 2.9387259483337402, -6.969915866851807, -1.7735552787780762, 1.2967334985733032, -0.668701171875, -0.573486328125, -0.355224609375, 0, 
88, 11170009, 0.19971974194049835, 0.5945597887039185, -0.0322798527777195, 0.7781831622123718, 0.9999998807907104, -0.0005192980170249939, -0.00014998763799667358, 0.000089242123067379, 0.0783739686012268, 0.015698254108428955, 0.024699151515960693, 9.40585994720459, 1.8815038204193115, 2.9635868072509766, -7.141146183013916, -2.062560558319092, 1.227216362953186, -0.66748046875, -0.571044921875, -0.353271484375, 0, 
89, 11178342, 0.19996777176856995, 0.5945546627044678, -0.03278627246618271, 0.7781020402908325, 0.9999998211860657, -0.0005195382982492447, -0.00017238222062587738, 0.00007657613605260849, 0.07822030782699585, 0.01575183868408203, 0.02489292621612549, 9.387454986572266, 1.8880809545516968, 2.986649751663208, -7.144449234008789, -2.3705203533172607, 1.05303955078125, -0.671630859375, -0.571533203125, -0.358642578125, 0, 
90, 11186675, 0.20022961497306824, 0.5945915579795837, -0.03328463062644005, 0.7779853940010071, 0.9999998211860657, -0.000537363812327385, -0.00018893741071224213, 0.00006725918501615524, 0.07814210653305054, 0.01569920778274536, 0.025051414966583252, 9.378120422363281, 1.881742000579834, 3.0055322647094727, -7.389580249786377, -2.5981805324554443, 0.9249173402786255, -0.668212890625, -0.571044921875, -0.357177734375, 0, 
91, 11195008, 0.20069080591201782, 0.5945844650268555, -0.03395417705178261, 0.7778430581092834, 0.9999998211860657, -0.0005554948002099991, -0.0001885741949081421, 0.0000654933974146843, 0.07832348346710205, 0.015858113765716553, 0.024991393089294434, 9.399901390075684, 1.9007078409194946, 2.998352289199829, -7.638909339904785, -2.5931856632232666, 0.9006350636482239, -0.664794921875, -0.571044921875, -0.360107421875, 0, 
92, 11203341, 0.20097841322422028, 0.5946127772331238, -0.03448181971907616, 0.7777239680290222, 0.9999998211860657, -0.0005770828574895859, -0.00018866360187530518, 0.0000644708052277565, 0.07825380563735962, 0.015777111053466797, 0.02470576763153076, 9.39154052734375, 1.8909215927124023, 2.964104413986206, -7.935776710510254, -2.594414472579956, 0.8865726590156555, -0.670166015625, -0.571533203125, -0.358642578125, 0, 
93, 11211674, 0.20159602165222168, 0.5945752859115601, -0.03526952862739563, 0.7775572538375854, 0.9999998211860657, -0.0006051603704690933, -0.00017044320702552795, 0.00005629751831293106, 0.07854664325714111, 0.016007959842681885, 0.024890363216400146, 9.426573753356934, 1.9187582731246948, 2.9865305423736572, -8.32188606262207, -2.3438563346862793, 0.7741774320602417, -0.668701171875, -0.568115234375, -0.358154296875, 0, 
94, 11220007, 0.20192651450634003, 0.5945594310760498, -0.03582145273685455, 0.7774584889411926, 0.9999997615814209, -0.000629231333732605, -0.00014581717550754547, 0.00005135778337717056, 0.07847720384597778, 0.015864193439483643, 0.024761199951171875, 9.418169021606445, 1.9014405012130737, 2.9712882041931152, -8.652898788452148, -2.0052103996276855, 0.7062484622001648, -0.665283203125, -0.570556640625, -0.359130859375, 0, 
95, 11228340, 0.20228616893291473, 0.5944869518280029, -0.036392923444509506, 0.7773938775062561, 0.9999997615814209, -0.0006495192646980286, -0.00011868216097354889, 0.00004069041460752487, 0.07830566167831421, 0.015887439250946045, 0.024868667125701904, 9.39749526977539, 1.9041982889175415, 2.9844846725463867, -8.931890487670898, -1.6320624351501465, 0.5595558285713196, -0.668212890625, -0.565185546875, -0.362548828125, 0, 
96, 11236673, 0.20266099274158478, 0.5944170951843262, -0.03694764897227287, 0.7773235440254211, 0.9999997615814209, -0.0006669312715530396, -0.00008558109402656555, 0.00002635922282934189, 0.07828366756439209, 0.01580214500427246, 0.024992763996124268, 9.394718170166016, 1.8941136598587036, 2.9997060298919678, -9.171331405639648, -1.1768718957901, 0.36247992515563965, -0.666748046875, -0.565673828125, -0.361083984375, 0, 
97, 11245006, 0.20329666137695312, 0.5942927598953247, -0.03768085315823555, 0.777217447757721, 0.9999997615814209, -0.0006805229932069778, -0.0000725816935300827, 0.000002239830791950226, 0.0781790018081665, 0.015645086765289307, 0.024924397468566895, 9.382081031799316, 1.8753914833068848, 2.9916539192199707, -9.358238220214844, -0.9981099367141724, 0.03080112114548683, -0.667724609375, -0.568115234375, -0.362060546875, 0, 
98, 11253339, 0.2037118673324585, 0.5941966772079468, -0.038225505501031876, 0.7771556377410889, 0.9999997615814209, -0.0006877761334180832, -0.00005672872066497803, -0.000008195638656616211, 0.07805311679840088, 0.01515573263168335, 0.024869263172149658, 9.366902351379395, 1.8167822360992432, 2.9851508140563965, -9.457982063293457, -0.780107319355011, -0.11270267516374588, -0.669677734375, -0.569091796875, -0.361572265625, 0, 
99, 11261672, 0.2040015310049057, 0.5940755605697632, -0.03866365924477577, 0.7771504521369934, 0.9999997615814209, -0.0006887055933475494, -0.000055322423577308655, -0.000020215287804603577, 0.07780826091766357, 0.01500546932220459, 0.024792075157165527, 9.337491989135742, 1.7988715171813965, 2.9758896827697754, -9.470762252807617, -0.7607685923576355, -0.2779913544654846, -0.670654296875, -0.566650390625, -0.364013671875, 0, 
100, 11270005, 0.20444048941135406, 0.5939739942550659, -0.03919417783617973, 0.7770861983299255, 0.9999997615814209, -0.0006913058459758759, -0.00004994124174118042, -0.00003516674041748047, 0.07753139734268188, 0.014781475067138672, 0.024714171886444092, 9.304224014282227, 1.7721418142318726, 2.9665729999542236, -9.506519317626953, -0.6867689490318298, -0.4835968315601349, -0.669189453125, -0.562744140625, -0.362548828125, 0, 
101, 11278338, 0.20504215359687805, 0.593839168548584, -0.03983744606375694, 0.776997983455658, 0.9999997615814209, -0.0006898008286952972, -0.00005603581666946411, -0.00004858337342739105, 0.07730627059936523, 0.014722645282745361, 0.024882912635803223, 9.277203559875488, 1.7651939392089844, 2.9867610931396484, -9.485823631286621, -0.7705786824226379, -0.6680961847305298, -0.668212890625, -0.566650390625, -0.365478515625, 0, 
102, 11286671, 0.2054971158504486, 0.5937409400939941, -0.04036444053053856, 0.7769256830215454, 0.9999997615814209, -0.0006973408162593842, -0.00005596131086349487, -0.00005137547850608826, 0.07738876342773438, 0.014628589153289795, 0.024357616901397705, 9.28709888458252, 1.7538928985595703, 2.923755407333374, -9.589509963989258, -0.7695541381835938, -0.7064918279647827, -0.670654296875, -0.565185546875, -0.364013671875, 0, 
103, 11295004, 0.20603734254837036, 0.593605101108551, -0.040967851877212524, 0.7768548727035522, 0.9999997615814209, -0.0006950050592422485, -0.00005390867590904236, -0.00004433654248714447, 0.07743889093399048, 0.014691293239593506, 0.02447718381881714, 9.293116569519043, 1.7614331245422363, 2.938087224960327, -9.557390213012695, -0.7413273453712463, -0.6096958518028259, -0.670654296875, -0.566162109375, -0.365478515625, 0, 
104, 11303337, 0.20648334920406342, 0.593490481376648, -0.041497018188238144, 0.7767959833145142, 0.9999997615814209, -0.0006961561739444733, -0.000036071985960006714, -0.000039596110582351685, 0.07743752002716064, 0.014605462551116943, 0.024381041526794434, 9.292908668518066, 1.7510931491851807, 2.9267072677612305, -9.573219299316406, -0.49604538083076477, -0.5445075631141663, -0.665771484375, -0.563232421875, -0.367431640625, 0, 
105, 11311670, 0.20696578919887543, 0.5933231711387634, -0.04207102954387665, 0.7767645716667175, 0.9999997615814209, -0.00069478340446949, -0.000011350959539413452, -0.00002405792474746704, 0.07780319452285767, 0.014620721340179443, 0.02429872751235962, 9.336746215820312, 1.7527798414230347, 2.9170615673065186, -9.554341316223145, -0.15609318017959595, -0.3308334946632385, -0.666748046875, -0.561767578125, -0.369384765625, 0, 
106, 11320003, 0.20739488303661346, 0.5931661128997803, -0.04260228946805, 0.7767411470413208, 0.9999997615814209, -0.000694645568728447, 0.000016919337213039398, -0.000016072764992713928, 0.07778966426849365, 0.01466602087020874, 0.024365127086639404, 9.33505630493164, 1.7581359148025513, 2.9252946376800537, -9.552446365356445, 0.2326669842004776, -0.2210252732038498, -0.669189453125, -0.565185546875, -0.368408203125, 0, 
107, 11328336, 0.20795732736587524, 0.5929455161094666, -0.04323994740843773, 0.7767238616943359, 0.9999997615814209, -0.0006959289312362671, 0.000050117261707782745, -0.000010617077350616455, 0.07765030860900879, 0.014559805393218994, 0.024403929710388184, 9.318246841430664, 1.745347261428833, 2.930236577987671, -9.57009506225586, 0.6891894936561584, -0.1460011601448059, -0.669677734375, -0.562744140625, -0.370361328125, 0, 
108, 11336669, 0.20839031040668488, 0.5927414298057556, -0.04374636337161064, 0.776735246181488, 0.9999997615814209, -0.0006857290863990784, 0.00007932726293802261, -0.000024491921067237854, 0.0776633620262146, 0.014167964458465576, 0.02472710609436035, 9.319698333740234, 1.6984179019927979, 2.9692752361297607, -9.429830551147461, 1.0908721685409546, -0.3368016481399536, -0.670166015625, -0.561279296875, -0.371826171875, 0, 
109, 11345002, 0.20890939235687256, 0.5924973487854004, -0.044314149767160416, 0.7767497301101685, 0.9999997615814209, -0.0006661023944616318, 0.00009255949407815933, -0.000025425106287002563, 0.07787948846817017, 0.013836562633514404, 0.02451711893081665, 9.345601081848145, 1.6587533950805664, 2.9441168308258057, -9.159933090209961, 1.2728354930877686, -0.3496343493461609, -0.669921875, -0.559814453125, -0.375732421875, 0, 
110, 11353335, 0.20932549238204956, 0.5922831296920776, -0.04476184770464897, 0.7767754793167114, 0.9999998211860657, -0.0006308704614639282, 0.00010724645107984543, -0.000042438507080078125, 0.07770127058029175, 0.013553500175476074, 0.02445363998413086, 9.324135780334473, 1.6250077486038208, 2.9366087913513184, -8.67543888092041, 1.4748036861419678, -0.5835947394371033, -0.666748046875, -0.562255859375, -0.371337890625, 0, 
111, 11361668, 0.20998914539813995, 0.5920121073722839, -0.04538056254386902, 0.7767670154571533, 0.9999998211860657, -0.0006103143095970154, 0.0001316191628575325, -0.00005451217293739319, 0.07770806550979614, 0.013392269611358643, 0.024467527866363525, 9.324872016906738, 1.6058698892593384, 2.9383983612060547, -8.392760276794434, 1.809965968132019, -0.7496262192726135, -0.669921875, -0.560302734375, -0.377197265625, 0, 
112, 11370001, 0.2103828489780426, 0.5917797088623047, -0.04577622935175896, 0.7768144011497498, 0.9999998211860657, -0.0005796793848276138, 0.00014410819858312607, -0.00005039386451244354, 0.07739585638046265, 0.013654768466949463, 0.02435082197189331, 9.287373542785645, 1.6374168395996094, 2.924492359161377, -7.971482276916504, 1.9817092418670654, -0.6929931640625, -0.66455078125, -0.561279296875, -0.374267578125, 0, 
113, 11378334, 0.2108718603849411, 0.5915290117263794, -0.04626582935452461, 0.7768436074256897, 0.9999998211860657, -0.0005757175385951996, 0.00012552831321954727, -0.000046446919441223145, 0.07707369327545166, 0.014157295227050781, 0.02439671754837036, 9.24875545501709, 1.6976571083068848, 2.929912567138672, -7.917003154754639, 1.7262074947357178, -0.6387166380882263, -0.66748046875, -0.560791015625, -0.377685546875, 0, 
114, 11386667, 0.2112591415643692, 0.5913285613059998, -0.04668553173542023, 0.7768658399581909, 0.9999998211860657, -0.0005879811942577362, 0.00009922217577695847, -0.00003774277865886688, 0.07683312892913818, 0.014366745948791504, 0.024917662143707275, 9.219982147216797, 1.7226650714874268, 2.9921703338623047, -8.08564567565918, 1.364457368850708, -0.5190212726593018, -0.66552734375, -0.559814453125, -0.379638671875, 0, 
115, 11395000, 0.21179698407649994, 0.5911242961883545, -0.047278791666030884, 0.7768391370773315, 0.9999998211860657, -0.0006041973829269409, 0.00005216989666223526, -0.000014971941709518433, 0.0764647126197815, 0.014559030532836914, 0.025024592876434326, 9.17595386505127, 1.7455235719680786, 3.0045621395111084, -8.308642387390137, 0.7174162268638611, -0.20588721334934235, -0.66796875, -0.558837890625, -0.381103515625, 0, 
116, 11403333, 0.21216146647930145, 0.5909892916679382, -0.04777718335390091, 0.7768118977546692, 0.9999998211860657, -0.0006232559680938721, 0.0000014388933777809143, 0.000013330020010471344, 0.07660156488418579, 0.014806091785430908, 0.02499711513519287, 9.192573547363281, 1.774815559387207, 3.0008902549743652, -8.570728302001953, 0.019786996766924858, 0.18330827355384827, -0.66796875, -0.561279296875, -0.380126953125, 0, 
117, 11411666, 0.212700754404068, 0.5908259749412537, -0.04847465455532074, 0.7767453789710999, 0.9999997615814209, -0.0006462614983320236, -0.000019924715161323547, 0.0000464925542473793, 0.07663208246231079, 0.015056371688842773, 0.02478194236755371, 9.196358680725098, 1.8045035600662231, 2.974928617477417, -8.887089729309082, -0.2739954888820648, 0.6393441557884216, -0.66357421875, -0.559326171875, -0.378662109375, 0, 
118, 11419999, 0.21304039657115936, 0.5906994938850403, -0.04902712255716324, 0.7767138481140137, 0.9999997615814209, -0.00064828060567379, -0.000020252540707588196, 0.00006331782788038254, 0.07649087905883789, 0.014908552169799805, 0.024506032466888428, 9.179441452026367, 1.7866535186767578, 2.941797971725464, -8.914855003356934, -0.27850356698036194, 0.870717465877533, -0.6650390625, -0.559814453125, -0.38623046875, 0, 
119, 11428332, 0.2135772556066513, 0.5905399322509766, -0.0497438944876194, 0.7766423225402832, 0.9999997615814209, -0.0006465371698141098, -0.000027686357498168945, 0.00006458442658185959, 0.07689422369003296, 0.014521181583404541, 0.0250055193901062, 9.22786808013916, 1.7401093244552612, 3.001640796661377, -8.890880584716797, -0.3807300329208374, 0.8881351351737976, -0.6669921875, -0.561279296875, -0.384033203125, 0, 
120, 11436665, 0.2139318585395813, 0.590414822101593, -0.05029301717877388, 0.7766045331954956, 0.9999997615814209, -0.0006536860018968582, -0.000023486092686653137, 0.000048636458814144135, 0.07747304439544678, 0.014293193817138672, 0.024895846843719482, 9.297285079956055, 1.712918996810913, 2.9884958267211914, -8.989188194274902, -0.322969913482666, 0.6688261032104492, -0.66748046875, -0.558837890625, -0.384765625, 0, 
121, 11444998, 0.21434731781482697, 0.5902513265609741, -0.05088075250387192, 0.7765758633613586, 0.9999997615814209, -0.0006473734974861145, -0.000010194256901741028, 0.00003862660378217697, 0.07793742418289185, 0.014346539974212646, 0.025075554847717285, 9.352960586547852, 1.7193629741668701, 3.0101969242095947, -8.90238094329834, -0.14018671214580536, 0.5311752557754517, -0.66650390625, -0.558837890625, -0.3837890625, 0, 
122, 11453331, 0.2147233933210373, 0.5901068449020386, -0.051397569477558136, 0.7765477895736694, 0.9999998211860657, -0.0006443653255701065, 0.000005315057933330536, 0.000016058795154094696, 0.07806950807571411, 0.014103889465332031, 0.02483677864074707, 9.36872673034668, 1.6904542446136475, 2.9816770553588867, -8.861014366149902, 0.07309021800756454, 0.22083315253257751, -0.66943359375, -0.557373046875, -0.384521484375, 0, 
123, 11461664, 0.21528072655200958, 0.5899176597595215, -0.05202058330178261, 0.7764955163002014, 0.9999997615814209, -0.0006481427699327469, 0.000017912127077579498, -0.000017123296856880188, 0.07794314622879028, 0.013909876346588135, 0.024712860584259033, 9.353469848632812, 1.6675039529800415, 2.96690034866333, -8.912960052490234, 0.24631927907466888, -0.2354716807603836, -0.6640625, -0.559814453125, -0.3857421875, 0, 
124, 11469997, 0.2156871110200882, 0.5897621512413025, -0.05248769372701645, 0.7764694690704346, 0.9999998211860657, -0.0006253458559513092, 0.000027262605726718903, -0.000035567209124565125, 0.07737767696380615, 0.013743877410888672, 0.024873733520507812, 9.285553932189941, 1.6478164196014404, 2.9862327575683594, -8.599468231201172, 0.37490275502204895, -0.4891038239002228, -0.66552734375, -0.551513671875, -0.38623046875, 0, 
125, 11478330, 0.21616871654987335, 0.5895824432373047, -0.05299578234553337, 0.776437520980835, 0.9999998211860657, -0.00061851367354393, 0.000024874694645404816, -0.0000569075345993042, 0.07679373025894165, 0.013715565204620361, 0.024797439575195312, 9.215447425842285, 1.6446136236190796, 2.9770617485046387, -8.505513191223145, 0.34206530451774597, -0.7825660705566406, -0.66748046875, -0.555419921875, -0.38671875, 0, 
126, 11486663, 0.21658746898174286, 0.5894596576690674, -0.053431443870067596, 0.776384174823761, 0.9999998211860657, -0.0006020311266183853, -0.000006712973117828369, -0.00007119029760360718, 0.0760231614112854, 0.013639271259307861, 0.024583280086517334, 9.123048782348633, 1.6356817483901978, 2.9510107040405273, -8.278853416442871, -0.09231369942426682, -0.9789760708808899, -0.66796875, -0.556396484375, -0.39013671875, 0, 
127, 11494996, 0.21698841452598572, 0.5893580913543701, -0.05387456715106964, 0.7763188481330872, 0.9999998211860657, -0.0005932170897722244, -0.00006124377250671387, -0.0000724252313375473, 0.07536196708679199, 0.013719737529754639, 0.02432417869567871, 9.043856620788574, 1.6453672647476196, 2.919436454772949, -8.157647132873535, -0.842195987701416, -0.9959582686424255, -0.6689453125, -0.555908203125, -0.39111328125, 0, 
128, 11503329, 0.2173808068037033, 0.589324414730072, -0.054293978959321976, 0.7762054204940796, 0.9999998211860657, -0.0005573201924562454, -0.00010914541780948639, -0.00007803738117218018, 0.07539457082748413, 0.013729512691497803, 0.02437800168991089, 9.047900199890137, 1.6466851234436035, 2.925407648086548, -7.664011001586914, -1.5009175539016724, -1.073134183883667, -0.668212890625, -0.553466796875, -0.392578125, 0, 
129, 11511662, 0.21784423291683197, 0.5893102288246155, -0.05478768050670624, 0.77605140209198, 0.9999998211860657, -0.0005311891436576843, -0.0001659095287322998, -0.000075487419962883, 0.07561081647872925, 0.013729274272918701, 0.024328291416168213, 9.074033737182617, 1.6466786861419678, 2.918856143951416, -7.30466890335083, -2.2815113067626953, -1.0380682945251465, -0.66748046875, -0.554443359375, -0.388671875, 0, 
130, 11519995, 0.21816912293434143, 0.589368462562561, -0.055181555449962616, 0.7758879661560059, 0.9999998807907104, -0.00048001110553741455, -0.00020789168775081635, -0.00005656294524669647, 0.07598072290420532, 0.013415992259979248, 0.024386942386627197, 9.118551254272461, 1.6091220378875732, 2.925462007522583, -6.600890636444092, -2.858830451965332, -0.7778275012969971, -0.66748046875, -0.558349609375, -0.390625, 0, 
131, 11528328, 0.21855151653289795, 0.589427649974823, -0.05562564358115196, 0.7757037878036499, 0.9999998807907104, -0.0004343520849943161, -0.00023414567112922668, -0.000053280964493751526, 0.07687723636627197, 0.013095200061798096, 0.024717867374420166, 9.226227760314941, 1.5707156658172607, 2.964831829071045, -5.9730095863342285, -3.219863176345825, -0.7326952815055847, -0.66650390625, -0.554443359375, -0.390625, 0, 
132, 11536661, 0.21881474554538727, 0.5895392894744873, -0.055943310260772705, 0.7755218744277954, 0.9999998807907104, -0.00037308037281036377, -0.000247076153755188, -0.000060519203543663025, 0.07762914896011353, 0.012901723384857178, 0.0244712233543396, 9.31651496887207, 1.547724723815918, 2.9348995685577393, -5.130429267883301, -3.3976776599884033, -0.8322321772575378, -0.66552734375, -0.553466796875, -0.390625, 0, 
133, 11544994, 0.21911947429180145, 0.5896269679069519, -0.05628596618771553, 0.7753442525863647, 0.9999999403953552, -0.00032617151737213135, -0.00023826956748962402, -0.00006141699850559235, 0.07851725816726685, 0.012699604034423828, 0.024155497550964355, 9.423086166381836, 1.52362060546875, 2.8969027996063232, -4.4853596687316895, -3.2765729427337646, -0.8445781469345093, -0.667724609375, -0.555419921875, -0.392578125, 0, 
134, 11553327, 0.21932874619960785, 0.5897282958030701, -0.05652320012450218, 0.7751907110214233, 0.9999999403953552, -0.00027922168374061584, -0.00020772404968738556, -0.00005918741226196289, 0.07868140935897827, 0.012496590614318848, 0.024325966835021973, 9.442641258239746, 1.4994059801101685, 2.9177567958831787, -3.8397274017333984, -2.85652494430542, -0.8139179348945618, -0.666259765625, -0.551513671875, -0.392578125, 0, 
135, 11561660, 0.219551220536232, 0.5897845029830933, -0.056737400591373444, 0.7750694751739502, 0.9999999403953552, -0.00022964179515838623, -0.00016384199261665344, -0.00007710978388786316, 0.0785684585571289, 0.012286722660064697, 0.024443387985229492, 9.428975105285645, 1.474521279335022, 2.9320626258850098, -3.1579277515411377, -2.2530791759490967, -1.060378074645996, -0.665771484375, -0.552490234375, -0.39306640625, 0, 
136, 11569993, 0.21974189579486847, 0.589846670627594, -0.056893181055784225, 0.7749567627906799, 0.9999999403953552, -0.0002110414206981659, -0.0001363903284072876, -0.00008149072527885437, 0.07816576957702637, 0.0125197172164917, 0.024460256099700928, 9.380504608154297, 1.5025500059127808, 2.934526205062866, -2.902144432067871, -1.8755768537521362, -1.120622992515564, -0.663330078125, -0.552001953125, -0.3935546875, 0, 
137, 11578326, 0.2201746553182602, 0.5898579359054565, -0.05723411962389946, 0.7748000621795654, 1, -0.00018806755542755127, -0.0001139417290687561, -0.00008677877485752106, 0.0777510404586792, 0.012882351875305176, 0.02464216947555542, 9.330714225769043, 1.5462144613265991, 2.956354856491089, -2.5862181186676025, -1.5668740272521973, -1.193341612815857, -0.666015625, -0.553466796875, -0.390625, 0, 
138, 11586659, 0.22034397721290588, 0.5898963809013367, -0.05734414607286453, 0.7747145295143127, 1, -0.00016598030924797058, -0.00009302608668804169, -0.00008446723222732544, 0.07731795310974121, 0.01325225830078125, 0.024736404418945312, 9.278621673583984, 1.5905348062515259, 2.9680750370025635, -2.282484769821167, -1.2792518138885498, -1.161554217338562, -0.66748046875, -0.553466796875, -0.390625, 0, 
139, 11594992, 0.22050635516643524, 0.5899256467819214, -0.05750260874629021, 0.7746344208717346, 1, -0.0001454818993806839, -0.00010508671402931213, -0.00005605816841125488, 0.07698416709899902, 0.013325273990631104, 0.024676203727722168, 9.238656044006348, 1.599170207977295, 2.9606404304504395, -2.0005998611450195, -1.4451037645339966, -0.7708860635757446, -0.667236328125, -0.554443359375, -0.39501953125, 0, 
140, 11603325, 0.22060999274253845, 0.5899837017059326, -0.05761276185512543, 0.7745525240898132, 1, -0.00012189894914627075, -0.00010995380580425262, -0.000033549964427948, 0.07709521055221558, 0.013654589653015137, 0.0245286226272583, 9.252079963684082, 1.638564944267273, 2.9426844120025635, -1.676297903060913, -1.5120339393615723, -0.4613635838031769, -0.664306640625, -0.553955078125, -0.3955078125, 0, 
141, 11611658, 0.220824733376503, 0.590018093585968, -0.0578501932322979, 0.7744472622871399, 1, -0.00009161047637462616, -0.00011165626347064972, -0.000010421499609947205, 0.07756084203720093, 0.013528645038604736, 0.024727284908294678, 9.308120727539062, 1.623254418373108, 2.9661266803741455, -1.2597848176956177, -1.535445213317871, -0.14331164956092834, -0.668701171875, -0.554443359375, -0.39306640625, 0, 
142, 11619991, 0.2208799570798874, 0.5900796055793762, -0.05794087424874306, 0.7743779420852661, 1, -0.00007636100053787231, -0.00010355934500694275, -0.000004969537258148193, 0.07802224159240723, 0.013399183750152588, 0.024695217609405518, 9.363579750061035, 1.607643485069275, 2.962022304534912, -1.0500811338424683, -1.4241002798080444, -0.0683387815952301, -0.665283203125, -0.553466796875, -0.39453125, 0, 
143, 11628324, 0.2210434526205063, 0.5901034474372864, -0.05811748653650284, 0.7742999196052551, 1, -0.00004324503242969513, -0.00008143298327922821, -0.000008942559361457825, 0.07823580503463745, 0.013046443462371826, 0.024609386920928955, 9.388671875, 1.5656356811523438, 2.95324444770813, -0.5946856737136841, -1.119828701019287, -0.12297394126653671, -0.667236328125, -0.552490234375, -0.396484375, 0, 
144, 11636657, 0.22107602655887604, 0.5901411175727844, -0.05815649405121803, 0.7742589712142944, 1, -0.000025833025574684143, -0.00005812011659145355, -0.000009968876838684082, 0.07826143503189087, 0.012869060039520264, 0.024984002113342285, 9.391745567321777, 1.544349193572998, 2.998199462890625, -0.3552438020706177, -0.7992409467697144, -0.1370873749256134, -0.664794921875, -0.554443359375, -0.39599609375, 0, 
145, 11644990, 0.22138912975788116, 0.5901328325271606, -0.058425962924957275, 0.77415531873703, 1, -0.000021062791347503662, -0.00004869513213634491, -0.000014740973711013794, 0.07823234796524048, 0.012731611728668213, 0.024983108043670654, 9.388257026672363, 1.5278544425964355, 2.9980926513671875, -0.289645791053772, -0.6696329712867737, -0.2027110606431961, -0.664306640625, -0.552978515625, -0.39111328125, 0, 
146, 11653323, 0.22142469882965088, 0.590168297290802, -0.05843843147158623, 0.774117112159729, 1, -0.000006765127182006836, -0.00004863180220127106, -0.000027177855372428894, 0.07806140184402466, 0.012670636177062988, 0.02477717399597168, 9.367742538452148, 1.52053701877594, 2.973379611968994, -0.0930308997631073, -0.6687619686126709, -0.37373727560043335, -0.665771484375, -0.552001953125, -0.39501953125, 0, 
147, 11661656, 0.2216261476278305, 0.5901781320571899, -0.05859037861227989, 0.7740405797958374, 1, 0.00001269858330488205, -0.00004991702735424042, -0.00003542378544807434, 0.07774245738983154, 0.01264733076095581, 0.02477496862411499, 9.3294677734375, 1.517740249633789, 2.9731149673461914, 0.17462505400180817, -0.6864359378814697, -0.4871315658092499, -0.667236328125, -0.555908203125, -0.392578125, 0, 
148, 11669989, 0.22164064645767212, 0.5902320742607117, -0.058573782444000244, 0.7739965319633484, 1, 0.00003297347575426102, -0.00006104074418544769, -0.000030141323804855347, 0.07754051685333252, 0.01240319013595581, 0.02464890480041504, 9.3052339553833, 1.488442301750183, 2.95798659324646, 0.4534359872341156, -0.8394039273262024, -0.4144895374774933, -0.665283203125, -0.552001953125, -0.3935546875, 0, 
149, 11678322, 0.2217530608177185, 0.5902870893478394, -0.058640360832214355, 0.7739173769950867, 1, 0.000059594400227069855, -0.00008724071085453033, -0.0000478159636259079, 0.07740086317062378, 0.012282073497772217, 0.024496257305145264, 9.288474082946777, 1.473907709121704, 2.9396681785583496, 0.8195146322250366, -1.1996939182281494, -0.6575430631637573, -0.665283203125, -0.554931640625, -0.3935546875, 0, 
150, 11686655, 0.2217344343662262, 0.5903919339179993, -0.05858583003282547, 0.7738468647003174, 1, 0.00009192992001771927, -0.0001096092164516449, -0.00003573857247829437, 0.07747405767440796, 0.012136220932006836, 0.02427142858505249, 9.297624588012695, 1.457227349281311, 2.9111077785491943, 1.264177680015564, -1.5072951316833496, -0.49146029353141785, -0.664306640625, -0.555908203125, -0.39501953125, 0, 
151, 11694988, 0.22168438136577606, 0.5905054807662964, -0.05854116752743721, 0.7737780213356018, 1, 0.000119001604616642, -0.00013615936040878296, -0.000034224241971969604, 0.07742530107498169, 0.011916041374206543, 0.024025321006774902, 9.291708946228027, 1.4305635690689087, 2.8818907737731934, 1.6364550590515137, -1.8724007606506348, -0.4706360101699829, -0.664306640625, -0.553466796875, -0.39453125, 0, 
152, 11703321, 0.22161443531513214, 0.5906516909599304, -0.05844011902809143, 0.7736940979957581, 1, 0.00016697589308023453, -0.00014218315482139587, -0.000028749927878379822, 0.07766121625900269, 0.012140750885009766, 0.023963332176208496, 9.320164680480957, 1.457859754562378, 2.8738040924072266, 2.296175479888916, -1.9552370309829712, -0.3953557312488556, -0.666259765625, -0.554443359375, -0.3955078125, 0, 
153, 11711654, 0.22166483104228973, 0.5907753705978394, -0.058464739471673965, 0.7735834717750549, 1, 0.00020212214440107346, -0.0001417342573404312, -0.000022105872631072998, 0.07790344953536987, 0.012046456336975098, 0.023634731769561768, 9.349146842956543, 1.4463896751403809, 2.834712266921997, 2.7794904708862305, -1.9490641355514526, -0.3039897680282593, -0.663330078125, -0.555419921875, -0.392578125, 0, 
154, 11719987, 0.22153928875923157, 0.5909208059310913, -0.05833018198609352, 0.7735185027122498, 0.9999999403953552, 0.0002270108088850975, -0.00012626126408576965, -0.0000014174729585647583, 0.07823055982589722, 0.01224285364151001, 0.023550331592559814, 9.38835620880127, 1.469779372215271, 2.8248109817504883, 3.1217477321624756, -1.7362866401672363, -0.019492432475090027, -0.668212890625, -0.554443359375, -0.392578125, 0, 
155, 11728320, 0.2214571237564087, 0.5910272002220154, -0.05826688930392265, 0.7734653949737549, 0.9999999403953552, 0.00025928113609552383, -0.00009699910879135132, 0.000011595897376537323, 0.07819068431854248, 0.012551724910736084, 0.02340620756149292, 9.383594512939453, 1.506988286972046, 2.807342052459717, 3.565514087677002, -1.3338868618011475, 0.15946140885353088, -0.665771484375, -0.556396484375, -0.392578125, 0, 
156, 11736653, 0.22128693759441376, 0.5911385416984558, -0.05808208882808685, 0.7734429836273193, 0.9999999403953552, 0.0002879863604903221, -0.00006612204015254974, 0.000015025027096271515, 0.07837480306625366, 0.012735068798065186, 0.023788034915924072, 9.40556812286377, 1.528964638710022, 2.853593349456787, 3.9602551460266113, -0.9092797040939331, 0.20661720633506775, -0.663818359375, -0.553955078125, -0.3916015625, 0, 
157, 11744986, 0.2211609035730362, 0.5912051796913147, -0.05797165259718895, 0.7734363675117493, 0.9999999403953552, 0.0003025876358151436, -0.00003103725612163544, 0.000023982487618923187, 0.07887357473373413, 0.01291191577911377, 0.02398240566253662, 9.465328216552734, 1.550110101699829, 2.8772711753845215, 4.161045551300049, -0.42681005597114563, 0.32979607582092285, -0.665771484375, -0.553955078125, -0.39111328125, 0, 
158, 11753319, 0.22095336019992828, 0.5912638306617737, -0.05775868892669678, 0.7734667658805847, 0.9999999403953552, 0.0003236522898077965, 0.000009953044354915619, 0.00004197191447019577, 0.07863622903823853, 0.013273656368255615, 0.024026155471801758, 9.436766624450684, 1.5935028791427612, 2.882782459259033, 4.450716972351074, 0.1368696689605713, 0.5771783590316772, -0.66357421875, -0.555419921875, -0.39111328125, 0, 
159, 11761652, 0.22079089283943176, 0.5912779569625854, -0.05760945379734039, 0.7735135555267334, 0.9999999403953552, 0.0003381418064236641, 0.00004785042256116867, 0.00004025455564260483, 0.07884562015533447, 0.013380646705627441, 0.024402081966400146, 9.461775779724121, 1.6063560247421265, 2.9282758235931396, 4.649970054626465, 0.6580169200897217, 0.5535621047019958, -0.666748046875, -0.555419921875, -0.39306640625, 0, 
160, 11769985, 0.22057875990867615, 0.5912792682647705, -0.05737627297639847, 0.7735903859138489, 0.9999999403953552, 0.0003323433920741081, 0.00008597131818532944, 0.0000471239909529686, 0.07874292135238647, 0.013535618782043457, 0.024564027786254883, 9.449352264404297, 1.6248698234558105, 2.9480717182159424, 4.57023286819458, 1.1822378635406494, 0.6480273604393005, -0.6630859375, -0.554931640625, -0.390625, 0, 
161, 11778318, 0.2204228937625885, 0.5912302136421204, -0.0572485476732254, 0.7736818194389343, 0.9999999403953552, 0.00032334309071302414, 0.0001225816085934639, 0.00006613973528146744, 0.07864826917648315, 0.013624191284179688, 0.02452927827835083, 9.437926292419434, 1.635283350944519, 2.944235324859619, 4.446464538574219, 1.6856857538223267, 0.9095231294631958, -0.6669921875, -0.557373046875, -0.390625, 0, 
162, 11786651, 0.22020933032035828, 0.5911791324615479, -0.057017333805561066, 0.7737987637519836, 0.9999999403953552, 0.00032283272594213486, 0.0001497892662882805, 0.00006128940731287003, 0.07853937149047852, 0.013594448566436768, 0.024647295475006104, 9.424787521362305, 1.6317437887191772, 2.9586024284362793, 4.439446449279785, 2.0598325729370117, 0.8428236246109009, -0.662109375, -0.554931640625, -0.3876953125, 0, 
163, 11794984, 0.22006891667842865, 0.5910980105400085, -0.056894827634096146, 0.7739095091819763, 0.9999999403953552, 0.00031508225947618484, 0.0001612575724720955, 0.00006646011024713516, 0.07795923948287964, 0.013656914234161377, 0.024876892566680908, 9.35513973236084, 1.6391881704330444, 2.9862582683563232, 4.3328657150268555, 2.2175395488739014, 0.9139286279678345, -0.664794921875, -0.555908203125, -0.39306640625, 0, 
164, 11803317, 0.21986070275306702, 0.5910413861274719, -0.056683894246816635, 0.7740274667739868, 0.9999999403953552, 0.00030336808413267136, 0.0001505007967352867, 0.00006976444274187088, 0.07758909463882446, 0.01381760835647583, 0.02492523193359375, 9.310729026794434, 1.6584362983703613, 2.9920430183410645, 4.171778202056885, 2.069617748260498, 0.9593684077262878, -0.666015625, -0.556884765625, -0.3896484375, 0, 
165, 11811650, 0.21973729133605957, 0.5909810662269592, -0.05660076439380646, 0.7741146683692932, 0.9999999403953552, 0.00029027368873357773, 0.0001252898946404457, 0.00007425155490636826, 0.0772620439529419, 0.013733983039855957, 0.02494257688522339, 9.271530151367188, 1.6483478546142578, 2.9940011501312256, 3.9917099475860596, 1.722928762435913, 1.0210732221603394, -0.66650390625, -0.555419921875, -0.38671875, 0, 
166, 11819983, 0.21953755617141724, 0.5909651517868042, -0.056426431983709335, 0.7741962671279907, 0.9999999403953552, 0.0002770712599158287, 0.00009005982428789139, 0.00007454399019479752, 0.07702898979187012, 0.013708174228668213, 0.024972736835479736, 9.243701934814453, 1.6451863050460815, 2.997220516204834, 3.8101558685302734, 1.2384611368179321, 1.0250945091247559, -0.66455078125, -0.557861328125, -0.3876953125, 0, 
167, 11828316, 0.21929916739463806, 0.5909739136695862, -0.05630810558795929, 0.7742655873298645, 0.9999999403953552, 0.00027138832956552505, 0.00003887619823217392, 0.0000948617234826088, 0.07707488536834717, 0.014064490795135498, 0.02492004632949829, 9.249402046203613, 1.6877362728118896, 2.9904205799102783, 3.732006549835205, 0.534607470035553, 1.3044943809509277, -0.666015625, -0.555908203125, -0.38916015625, 0, 
168, 11836649, 0.21909195184707642, 0.5910463333129883, -0.05616460740566254, 0.7742794752120972, 0.9999999403953552, 0.0002736886963248253, -0.000025480985641479492, 0.00007874984294176102, 0.07686632871627808, 0.01421266794204712, 0.025037705898284912, 9.22455883026123, 1.7056931257247925, 3.0038771629333496, 3.7636399269104004, -0.35040268301963806, 1.0829312801361084, -0.66748046875, -0.555908203125, -0.38916015625, 0, 
169, 11844982, 0.21893031895160675, 0.5911432504653931, -0.05610131472349167, 0.7742558121681213, 0.9999999403953552, 0.00028341542929410934, -0.00007779523730278015, 0.00007015559822320938, 0.07684934139251709, 0.01377171277999878, 0.02501910924911499, 9.222631454467773, 1.6528712511062622, 3.001251697540283, 3.897397756576538, -1.069804072380066, 0.9647472500801086, -0.66845703125, -0.557373046875, -0.388671875, 0, 
170, 11853315, 0.2187296599149704, 0.5912995338439941, -0.05595129355788231, 0.7742040753364563, 0.9999999403953552, 0.0002894522622227669, -0.00012754648923873901, 0.00005059037357568741, 0.07741916179656982, 0.013738155364990234, 0.024985074996948242, 9.291075706481934, 1.6489911079406738, 2.996880292892456, 3.9804139137268066, -1.7539604902267456, 0.6956954598426819, -0.6669921875, -0.554443359375, -0.390625, 0, 
171, 11861648, 0.21856364607810974, 0.5914692878723145, -0.055862654000520706, 0.7741274833679199, 0.9999999403953552, 0.0002855556085705757, -0.00016704760491847992, 0.0000334298238158226, 0.07779860496520996, 0.013476848602294922, 0.025333166122436523, 9.336811065673828, 1.6178858280181885, 3.037921905517578, 3.9268290996551514, -2.29716157913208, 0.459711492061615, -0.666015625, -0.561767578125, -0.38916015625, 0, 
172, 11869981, 0.21838033199310303, 0.5916786789894104, -0.055700451135635376, 0.774030864238739, 0.9999999403953552, 0.00029785651713609695, -0.0001916494220495224, 0.000017181970179080963, 0.07815706729888916, 0.013485729694366455, 0.025215208530426025, 9.379799842834473, 1.6190532445907593, 3.023784637451172, 4.095985412597656, -2.635474443435669, 0.23627851903438568, -0.6669921875, -0.553955078125, -0.38671875, 0, 
173, 11878314, 0.21831314265727997, 0.591876745223999, -0.05566186085343361, 0.7739012241363525, 0.9999999403953552, 0.00030182767659425735, -0.00020659156143665314, 0.000007829628884792328, 0.07842707633972168, 0.013291418552398682, 0.024641692638397217, 9.412181854248047, 1.5957627296447754, 2.954960346221924, 4.150595188140869, -2.840951681137085, 0.10766944289207458, -0.66943359375, -0.555908203125, -0.388671875, 0, 
174, 11886647, 0.21813136339187622, 0.5920965075492859, -0.05549199506640434, 0.7737964987754822, 0.9999999403953552, 0.00030484143644571304, -0.00020270049571990967, 0.000008842907845973969, 0.07857197523117065, 0.013230979442596436, 0.024518132209777832, 9.429555892944336, 1.5885041952133179, 2.940164089202881, 4.1920390129089355, -2.7874438762664795, 0.1216035857796669, -0.66748046875, -0.558349609375, -0.390625, 0, 
175, 11894980, 0.21799243986606598, 0.5922914743423462, -0.05537772923707962, 0.7736947536468506, 0.9999999403953552, 0.0003139348700642586, -0.00019232556223869324, -0.000003777444362640381, 0.07893198728561401, 0.013476908206939697, 0.024312913417816162, 9.472826957702637, 1.6183395385742188, 2.9151055812835693, 4.317086696624756, -2.6447722911834717, -0.05194566771388054, -0.66845703125, -0.555908203125, -0.38916015625, 0, 
176, 11903313, 0.21781745553016663, 0.5924776196479797, -0.055190715938806534, 0.7736149430274963, 0.9999999403953552, 0.00030824076384305954, -0.00015769526362419128, 7.981434464454651e-7, 0.078960120677948, 0.013626158237457275, 0.024356365203857422, 9.476052284240723, 1.6360925436019897, 2.920893430709839, 4.2387847900390625, -2.1685523986816406, 0.010975700803101063, -0.66845703125, -0.560791015625, -0.38671875, 0, 
177, 11911646, 0.2176971286535263, 0.5926253199577332, -0.0550822839140892, 0.7735434770584106, 0.9999999403953552, 0.00031987298280000687, -0.00013229809701442719, 0.0000029141083359718323, 0.07945913076400757, 0.014144480228424072, 0.024196863174438477, 9.535863876342773, 1.6983013153076172, 2.901944160461426, 4.398745536804199, -1.8193022012710571, 0.040073469281196594, -0.66943359375, -0.557861328125, -0.384033203125, 0, 
178, 11919979, 0.21751819550991058, 0.5927576422691345, -0.0548950657248497, 0.7735058069229126, 0.9999999403953552, 0.00030168425291776657, -0.00009133666753768921, 0.000015760771930217743, 0.079257071018219, 0.014449656009674072, 0.024231016635894775, 9.511491775512695, 1.7346808910369873, 2.9065887928009033, 4.148622989654541, -1.2560197114944458, 0.2167348712682724, -0.669921875, -0.555419921875, -0.384521484375, 0, 
179, 11928312, 0.2173466682434082, 0.592856228351593, -0.05477025732398033, 0.7734872102737427, 0.9999999403953552, 0.0002943268045783043, -0.00007213465869426727, 0.00002832617610692978, 0.0789794921875, 0.014591991901397705, 0.024449944496154785, 9.478169441223145, 1.7516834735870361, 2.932953119277954, 4.047445774078369, -0.9919624924659729, 0.38952845335006714, -0.66552734375, -0.557373046875, -0.38427734375, 0, 
180, 11936645, 0.217178612947464, 0.5929517149925232, -0.05460746958851814, 0.773472785949707, 0.9999999403953552, 0.000270121730864048, -0.00005386956036090851, 0.000028918497264385223, 0.0785222053527832, 0.01464611291885376, 0.02426004409790039, 9.423282623291016, 1.7582026720046997, 2.9101765155792236, 3.7145891189575195, -0.7407892942428589, 0.3976737856864929, -0.666015625, -0.558349609375, -0.38330078125, 0, 
181, 11944978, 0.21704807877540588, 0.5930256843566895, -0.05452878400683403, 0.7734580039978027, 0.9999999403953552, 0.0002537360414862633, -0.000053534284234046936, 0.00003461632877588272, 0.07784384489059448, 0.014888942241668701, 0.024332106113433838, 9.341824531555176, 1.7871078252792358, 2.9191391468048096, 3.489260673522949, -0.7361786961555481, 0.4760277569293976, -0.6669921875, -0.558837890625, -0.38623046875, 0, 
182, 11953311, 0.21690838038921356, 0.5931280255317688, -0.05439600348472595, 0.7734281420707703, 1, 0.00023077894002199173, -0.00007324665784835815, 0.000021005980670452118, 0.07743614912033081, 0.014619410037994385, 0.0244826078414917, 9.292963981628418, 1.754886269569397, 2.93693470954895, 3.17356538772583, -1.0072541236877441, 0.28886452317237854, -0.6669921875, -0.556396484375, -0.38427734375, 0, 
183, 11961644, 0.21683581173419952, 0.5932110548019409, -0.054345373064279556, 0.7733883261680603, 1, 0.00020381715148687363, -0.00007759034633636475, 0.0000036088749766349792, 0.0773124098777771, 0.014623463153839111, 0.024238407611846924, 9.278149604797363, 1.7555865049362183, 2.9073750972747803, 2.8027992248535156, -1.0669865608215332, 0.049627576023340225, -0.6689453125, -0.559326171875, -0.38623046875, 0, 
184, 11969977, 0.21675428748130798, 0.5933158993721008, -0.05422232672572136, 0.7733394503593445, 1, 0.0001884056255221367, -0.00008540041744709015, -0.000022592023015022278, 0.07731431722640991, 0.014573752880096436, 0.024172067642211914, 9.27823257446289, 1.7494410276412964, 2.8999922275543213, 2.590866804122925, -1.1743870973587036, -0.31067508459091187, -0.6669921875, -0.556884765625, -0.38427734375, 0, 
185, 11978310, 0.21673470735549927, 0.5934057235717773, -0.0541631244122982, 0.7732802033424377, 1, 0.00017278362065553665, -0.00009085796773433685, -0.00004754774272441864, 0.07726889848709106, 0.01432710886001587, 0.024159014225006104, 9.272772789001465, 1.7200169563293457, 2.8983559608459473, 2.3760406970977783, -1.249436855316162, -0.6538546085357666, -0.669921875, -0.558349609375, -0.380126953125, 0, 
186, 11986643, 0.21670544147491455, 0.5935215353965759, -0.05404706299304962, 0.7732077240943909, 1, 0.000153261236846447, -0.00010659731924533844, -0.00006455555558204651, 0.07704037427902222, 0.014225542545318604, 0.024095237255096436, 9.245366096496582, 1.7079274654388428, 2.8905909061431885, 2.1075778007507324, -1.4658771753311157, -0.8877382278442383, -0.6669921875, -0.558349609375, -0.383056640625, 0, 
187, 11994976, 0.2167007029056549, 0.5936148762702942, -0.05396677553653717, 0.77314293384552, 1, 0.00013046246021986008, -0.00010049715638160706, -0.00008738413453102112, 0.07684415578842163, 0.014060437679290771, 0.02411782741546631, 9.22178840637207, 1.6883341073989868, 2.893270969390869, 1.7940595149993896, -1.3819905519485474, -1.201666235923767, -0.666015625, -0.558837890625, -0.38427734375, 0, 
188, 12003309, 0.21671083569526672, 0.5937231183052063, -0.0538724847137928, 0.773063600063324, 1, 0.00011139456182718277, -0.00010738149285316467, -0.00008322112262248993, 0.07689976692199707, 0.01376497745513916, 0.023946762084960938, 9.22850513458252, 1.6529138088226318, 2.872591495513916, 1.5318466424942017, -1.4766606092453003, -1.144418478012085, -0.66552734375, -0.560791015625, -0.380615234375, 0, 
189, 12011642, 0.2167990654706955, 0.593796968460083, -0.05388456955552101, 0.7729811072349548, 1, 0.00009450782090425491, -0.00009404867887496948, -0.00007699616253376007, 0.07669472694396973, 0.013714611530303955, 0.02417433261871338, 9.20391845703125, 1.6470545530319214, 2.899751901626587, 1.2996277809143066, -1.2933140993118286, -1.0588157176971436, -0.666015625, -0.561279296875, -0.381103515625, 0, 
190, 12019975, 0.2168065309524536, 0.5938915014266968, -0.05380343273282051, 0.7729120254516602, 1, 0.0001003192737698555, -0.00009373761713504791, -0.00007050856947898865, 0.07661861181259155, 0.013580083847045898, 0.02413797378540039, 9.194795608520508, 1.6308495998382568, 2.8953895568847656, 1.3795441389083862, -1.2890362739562988, -0.9696011543273926, -0.66748046875, -0.559326171875, -0.384765625, 0, 
191, 12028308, 0.21683168411254883, 0.5939798951148987, -0.053768545389175415, 0.7728396058082581, 1, 0.00012150127440690994, -0.00010198727250099182, -0.00007000751793384552, 0.076832115650177, 0.013519525527954102, 0.02405095100402832, 9.220401763916016, 1.6233947277069092, 2.885101318359375, 1.67082941532135, -1.4024817943572998, -0.9627110362052917, -0.66748046875, -0.559814453125, -0.382568359375, 0, 
192, 12036641, 0.21680450439453125, 0.5940902233123779, -0.05367182567715645, 0.7727690935134888, 1, 0.00013660360127687454, -0.00010525621473789215, -0.00005418062210083008, 0.07721537351608276, 0.01354891061782837, 0.023976445198059082, 9.266410827636719, 1.6267504692077637, 2.8761961460113525, 1.878509759902954, -1.4474347829818726, -0.7450669407844543, -0.6640625, -0.558837890625, -0.384765625, 0, 
193, 12044974, 0.216804638504982, 0.5941797494888306, -0.053650472313165665, 0.7727016806602478, 1, 0.00015636254101991653, -0.00009923800826072693, -0.00003298558294773102, 0.0773974061012268, 0.013599574565887451, 0.023769795894622803, 9.288252830505371, 1.6326483488082886, 2.851498603820801, 2.1502256393432617, -1.3646752834320068, -0.45360252261161804, -0.6650390625, -0.558349609375, -0.38232421875, 0, 
194, 12053307, 0.2167258858680725, 0.5942854881286621, -0.05354347079992294, 0.7726499438285828, 1, 0.00017536524683237076, -0.00009121745824813843, -0.00001615658402442932, 0.0774991512298584, 0.013648271560668945, 0.023962795734405518, 9.300447463989258, 1.6383538246154785, 2.8747899532318115, 2.411541700363159, -1.254380226135254, -0.22217786312103271, -0.66552734375, -0.558837890625, -0.382080078125, 0, 
195, 12061640, 0.21671956777572632, 0.594365119934082, -0.0535421296954155, 0.7725906372070312, 1, 0.0001850361004471779, -0.00008381344377994537, -0.0000013597309589385986, 0.07766944169998169, 0.01352924108505249, 0.02448403835296631, 9.320880889892578, 1.6239755153656006, 2.9374208450317383, 2.5445311069488525, -1.1525636911392212, -0.01869839057326317, -0.6669921875, -0.560302734375, -0.38623046875, 0, 
196, 12069973, 0.21660847961902618, 0.5944665670394897, -0.053442131727933884, 0.7725507020950317, 1, 0.00018908362835645676, -0.00008417107164859772, 0.000015628524124622345, 0.07792115211486816, 0.013654708862304688, 0.02454012632369995, 9.35110092163086, 1.638914942741394, 2.944174289703369, 2.6001906394958496, -1.1574817895889282, 0.21491622924804688, -0.66796875, -0.558349609375, -0.382080078125, 0, 
197, 12078306, 0.2166777402162552, 0.5945331454277039, -0.053530503064394, 0.7724738717079163, 1, 0.0001995982602238655, -0.00007533282041549683, 0.000030317343771457672, 0.07818341255187988, 0.01403278112411499, 0.024315178394317627, 9.382732391357422, 1.6843830347061157, 2.9165990352630615, 2.7447829246520996, -1.0359420776367188, 0.4169101119041443, -0.66552734375, -0.558349609375, -0.3828125, 0, 
198, 12086639, 0.2165411412715912, 0.5946202874183655, -0.05343400686979294, 0.7724518179893494, 1, 0.00019970443099737167, -0.00006458908319473267, 0.00004208926111459732, 0.07835990190505981, 0.014014780521392822, 0.0244448184967041, 9.403903007507324, 1.6820876598358154, 2.9322683811187744, 2.7462430000305176, -0.8881992101669312, 0.5787920355796814, -0.666015625, -0.560302734375, -0.380615234375, 0, 
199, 12094972, 0.21639947593212128, 0.5946817398071289, -0.053390566259622574, 0.7724470496177673, 1, 0.00020554382354021072, -0.00005343928933143616, 0.0000622505322098732, 0.07866925001144409, 0.014091849327087402, 0.024392783641815186, 9.44100570678711, 1.691105842590332, 2.9262137413024902, 2.8265435695648193, -0.7348724007606506, 0.8560405373573303, -0.66796875, -0.561279296875, -0.382568359375, 0, 
200, 12103305, 0.21625128388404846, 0.5947595238685608, -0.05329686403274536, 0.772435188293457, 1, 0.00020354706794023514, -0.000052347779273986816, 0.00005550216883420944, 0.07864648103713989, 0.014181077480316162, 0.02445906400680542, 9.438267707824707, 1.7018898725509644, 2.9341447353363037, 2.7990851402282715, -0.7198624610900879, 0.7632402181625366, -0.66943359375, -0.560791015625, -0.378173828125, 0, 
201, 12111638, 0.21613948047161102, 0.5948222279548645, -0.05328460410237312, 0.7724190354347229, 1, 0.0001988755539059639, -0.00006014108657836914, 0.00006579887121915817, 0.07839322090148926, 0.014337778091430664, 0.024458110332489014, 9.407925605773926, 1.7205570936203003, 2.933950901031494, 2.73484468460083, -0.8270324468612671, 0.9048356413841248, -0.66845703125, -0.559326171875, -0.379150390625, 0, 
202, 12119971, 0.21598568558692932, 0.5949141979217529, -0.05320245400071144, 0.7723968625068665, 1, 0.00020079780369997025, -0.00007215887308120728, 0.00006364565342664719, 0.07829654216766357, 0.014362692832946777, 0.02461487054824829, 9.396347999572754, 1.723586082458496, 2.9526712894439697, 2.7612788677215576, -0.9922955632209778, 0.8752256631851196, -0.66796875, -0.563232421875, -0.380615234375, 0, 
203, 12128304, 0.21584393084049225, 0.5950047373771667, -0.05319502577185631, 0.7723672986030579, 1, 0.00019156839698553085, -0.0000974312424659729, 0.00007965695112943649, 0.07799011468887329, 0.014390408992767334, 0.024363338947296143, 9.35966682434082, 1.7267073392868042, 2.9223077297210693, 2.6343600749969482, -1.3398293256759644, 1.0954054594039917, -0.66748046875, -0.559814453125, -0.376708984375, 0, 
204, 12136637, 0.21569187939167023, 0.5951390266418457, -0.05315561220049858, 0.7723090648651123, 1, 0.00017424579709768295, -0.00013556517660617828, 0.00007767695933580399, 0.07775038480758667, 0.014455616474151611, 0.024230003356933594, 9.330994606018066, 1.7345056533813477, 2.9060113430023193, 2.3961477279663086, -1.864229679107666, 1.0681777000427246, -0.666015625, -0.560302734375, -0.380126953125, 0, 
205, 12144970, 0.21554270386695862, 0.5952847003936768, -0.05315995588898659, 0.7722381949424744, 0.9999999403953552, 0.00017168093472719193, -0.00017267651855945587, 0.00007336121052503586, 0.07792556285858154, 0.014653146266937256, 0.024068713188171387, 9.352019309997559, 1.75827157497406, 2.886594533920288, 2.3608767986297607, -2.374567747116089, 1.0088294744491577, -0.66552734375, -0.557861328125, -0.382080078125, 0, 
206, 12153303, 0.21539229154586792, 0.5954697728157043, -0.05313250422477722, 0.7721394300460815, 0.9999999403953552, 0.00017290841788053513, -0.0002014022320508957, 0.00007212627679109573, 0.0778617262840271, 0.01458662748336792, 0.024128377437591553, 9.344616889953613, 1.7502596378326416, 2.892939329147339, 2.377756357192993, -2.7695906162261963, 0.9918472170829773, -0.66650390625, -0.564697265625, -0.378173828125, 0, 
207, 12161636, 0.21534907817840576, 0.5956422686576843, -0.05321068316698074, 0.7720128297805786, 0.9999999403953552, 0.0001675644889473915, -0.00021683983504772186, 0.000056794844567775726, 0.07813209295272827, 0.014736175537109375, 0.023997962474822998, 9.37705135345459, 1.7683544158935547, 2.877211332321167, 2.3042690753936768, -2.9818806648254395, 0.7810162901878357, -0.666015625, -0.560791015625, -0.377685546875, 0, 
208, 12169969, 0.2152227759361267, 0.595837414264679, -0.05317441374063492, 0.7718999981880188, 0.9999999403953552, 0.00016679149121046066, -0.000214478000998497, 0.00004444550722837448, 0.07826805114746094, 0.014731645584106445, 0.02401632070541382, 9.393362045288086, 1.7679424285888672, 2.879349708557129, 2.2936394214630127, -2.949402332305908, 0.6111940145492554, -0.66845703125, -0.559814453125, -0.378173828125, 0, 
209, 12178302, 0.21517311036586761, 0.596011221408844, -0.05320679768919945, 0.771777331829071, 0.9999999403953552, 0.00016888510435819626, -0.0002128463238477707, 0.00002476666122674942, 0.07847517728805542, 0.014640271663665771, 0.023922860622406006, 9.41792106628418, 1.757103681564331, 2.8690152168273926, 2.322429656982422, -2.9269638061523438, 0.34057965874671936, -0.6669921875, -0.558349609375, -0.379638671875, 0, 
210, 12186635, 0.21507273614406586, 0.5961830019950867, -0.05313582345843315, 0.771677553653717, 0.9999999403953552, 0.00017420481890439987, -0.00017980672419071198, 0.000007831491529941559, 0.07858258485794067, 0.014622271060943604, 0.024048686027526855, 9.430793762207031, 1.755149483680725, 2.8840560913085938, 2.3955845832824707, -2.47261905670166, 0.1076950654387474, -0.66845703125, -0.560302734375, -0.380615234375, 0, 
211, 12194968, 0.21507783234119415, 0.5963085293769836, -0.05316373333334923, 0.7715773582458496, 1, 0.00017777178436517715, -0.00014992430806159973, 0.0000020721927285194397, 0.07845938205718994, 0.014502465724945068, 0.02375560998916626, 9.415976524353027, 1.7409025430679321, 2.848890542984009, 2.4446353912353516, -2.061689615249634, 0.02849583700299263, -0.66845703125, -0.561767578125, -0.375244140625, 0, 
212, 12203301, 0.21498771011829376, 0.5964239835739136, -0.05307336151599884, 0.7715195417404175, 1, 0.00017326045781373978, -0.00010657869279384613, 2.3748725652694702e-7, 0.07829016447067261, 0.014382541179656982, 0.02351444959640503, 9.395411491394043, 1.7263243198394775, 2.8209102153778076, 2.3825974464416504, -1.465620994567871, 0.003265814855694771, -0.66748046875, -0.560791015625, -0.377685546875, 0, 
213, 12211634, 0.21488848328590393, 0.5964914560317993, -0.05298398435115814, 0.7715008854866028, 1, 0.0001817690208554268, -0.00006249919533729553, -0.000008122995495796204, 0.07786494493484497, 0.014275670051574707, 0.023456871509552002, 9.344297409057617, 1.7136218547821045, 2.814215898513794, 2.499603509902954, -0.8594599962234497, -0.11170367896556854, -0.6708984375, -0.561279296875, -0.379150390625, 0, 
214, 12219967, 0.21479451656341553, 0.5965492725372314, -0.05286227911710739, 0.771490752696991, 1, 0.0001903316006064415, -0.000027120113372802734, -0.000002084299921989441, 0.07744652032852173, 0.014347076416015625, 0.023610293865203857, 9.294013023376465, 1.72216796875, 2.832880735397339, 2.6173524856567383, -0.37294331192970276, -0.02866233140230179, -0.666015625, -0.562255859375, -0.376220703125, 0, 
215, 12228300, 0.2147635966539383, 0.5965770483016968, -0.05283857882022858, 0.7714794278144836, 1, 0.0001971432939171791, -0.00001673586666584015, 0.00001669209450483322, 0.07691055536270142, 0.014614105224609375, 0.023412346839904785, 9.229692459106445, 1.7540650367736816, 2.809216022491455, 2.7110233306884766, -0.23014391958713531, 0.22954195737838745, -0.66845703125, -0.559814453125, -0.376220703125, 0, 
216, 12236633, 0.2146434783935547, 0.5966356992721558, -0.05271746963262558, 0.7714757919311523, 1, 0.00020607467740774155, -0.000025548040866851807, 0.00001962948590517044, 0.07654929161071777, 0.014730334281921387, 0.023480236530303955, 9.186355590820312, 1.767985224723816, 2.817330837249756, 2.833843469619751, -0.35132482647895813, 0.26993560791015625, -0.6640625, -0.560302734375, -0.375244140625, 0, 
217, 12244966, 0.2145441621541977, 0.5966896414756775, -0.05267849192023277, 0.7714642882347107, 1, 0.0002243397757411003, -0.00004320219159126282, 0.00005041901022195816, 0.07631087303161621, 0.014767348766326904, 0.023585855960845947, 9.1579008102417, 1.7723413705825806, 2.829551935195923, 3.0850164890289307, -0.5940965414047241, 0.693338930606842, -0.66748046875, -0.562744140625, -0.374755859375, 0, 
218, 12253299, 0.21436311304569244, 0.5967796444892883, -0.052583836019039154, 0.7714515328407288, 0.9999999403953552, 0.00022847671061754227, -0.00006405822932720184, 0.00007888767868280411, 0.07658207416534424, 0.014758765697479248, 0.023823320865631104, 9.190524101257324, 1.7710540294647217, 2.8579659461975098, 3.1419060230255127, -0.8808991312980652, 1.0848268270492554, -0.66943359375, -0.560791015625, -0.375244140625, 0, 
219, 12261632, 0.21419548988342285, 0.5968608856201172, -0.052542123943567276, 0.7714380621910095, 0.9999999403953552, 0.0002276906743645668, -0.00007718056440353394, 0.0000874074175953865, 0.07656824588775635, 0.01476144790649414, 0.0236852765083313, 9.188898086547852, 1.7713022232055664, 2.8413333892822266, 3.1310970783233643, -1.0613515377044678, 1.2019864320755005, -0.67041015625, -0.560302734375, -0.376708984375, 0, 
220, 12269965, 0.21400220692157745, 0.5969536304473877, -0.05246240645647049, 0.7714254260063171, 0.9999999403953552, 0.00022515561431646347, -0.00006991438567638397, 0.00009709689766168594, 0.07697921991348267, 0.014668643474578857, 0.0239410400390625, 9.238215446472168, 1.7600780725479126, 2.872084140777588, 3.096235990524292, -0.9614303708076477, 1.3352317810058594, -0.66845703125, -0.557861328125, -0.373779296875, 0, 
221, 12278298, 0.2138601839542389, 0.5970295071601868, -0.052453283220529556, 0.7714066505432129, 0.9999999403953552, 0.00022022705525159836, -0.00007644295692443848, 0.00009756069630384445, 0.07722467184066772, 0.01471179723739624, 0.023749232292175293, 9.267694473266602, 1.7652279138565063, 2.8489975929260254, 3.02846097946167, -1.0512083768844604, 1.3416097164154053, -0.669921875, -0.560791015625, -0.373779296875, 0, 
222, 12286631, 0.2136755734682083, 0.5971102714538574, -0.0523914135992527, 0.7713994979858398, 1, 0.00020396802574396133, -0.0000609029084444046, 0.00010270345956087112, 0.0773400068283081, 0.014982044696807861, 0.023674309253692627, 9.281554222106934, 1.7975186109542847, 2.840036392211914, 2.8048737049102783, -0.8375086784362793, 1.4123305082321167, -0.671142578125, -0.560302734375, -0.371826171875, 0, 
223, 12294964, 0.21353653073310852, 0.5971680879592896, -0.052393216639757156, 0.7713932991027832, 1, 0.00018688011914491653, -0.00006122700870037079, 0.00010071787983179092, 0.0774889588356018, 0.015154242515563965, 0.023750782012939453, 9.299483299255371, 1.8180887699127197, 2.849097967147827, 2.5698893070220947, -0.8419656157493591, 1.3850257396697998, -0.6669921875, -0.560302734375, -0.374755859375, 0, 
224, 12303297, 0.21338775753974915, 0.5972306132316589, -0.05235016345977783, 0.7713889479637146, 1, 0.00016446877270936966, -0.000047286972403526306, 0.00008781347423791885, 0.07752478122711182, 0.015134751796722412, 0.024177193641662598, 9.303584098815918, 1.8159692287445068, 2.9007840156555176, 2.2616984844207764, -0.6502684950828552, 1.207570195198059, -0.670166015625, -0.564208984375, -0.372802734375, 0, 
225, 12311630, 0.21334195137023926, 0.5972636938095093, -0.05239854007959366, 0.7713726758956909, 1, 0.00013498123735189438, -0.000045515596866607666, 0.00007044430822134018, 0.07766753435134888, 0.015296578407287598, 0.024103939533233643, 9.320784568786621, 1.8353486061096191, 2.8917951583862305, 1.8561995029449463, -0.6259094476699829, 0.9687175154685974, -0.6689453125, -0.560791015625, -0.375244140625, 0, 
226, 12319963, 0.21324831247329712, 0.5973131060600281, -0.05237341672182083, 0.7713619470596313, 1, 0.00011471938341856003, -0.000041933730244636536, 0.000055330805480480194, 0.07800865173339844, 0.015208840370178223, 0.02415555715560913, 9.361780166625977, 1.8248262405395508, 2.897784948348999, 1.57756769657135, -0.576653242111206, 0.760883629322052, -0.6689453125, -0.562744140625, -0.374267578125, 0, 
227, 12328296, 0.2132280021905899, 0.5973312258720398, -0.05241488292813301, 0.7713506817817688, 1, 0.00008587818592786789, -0.0000357702374458313, 0.0000392058864235878, 0.07818984985351562, 0.015176773071289062, 0.023986101150512695, 9.383156776428223, 1.8212859630584717, 2.8784472942352295, 1.1809570789337158, -0.49189576506614685, 0.5391411781311035, -0.670166015625, -0.562255859375, -0.371826171875, 0, 
228, 12336629, 0.21317510306835175, 0.5973495841026306, -0.052393652498722076, 0.7713525891304016, 1, 0.0000817636027932167, -0.000009272247552871704, 0.00003057066351175308, 0.07825595140457153, 0.014705359935760498, 0.023794949054718018, 9.39108943939209, 1.7647136449813843, 2.8555078506469727, 1.124375343322754, -0.12750767171382904, 0.4203936755657196, -0.67041015625, -0.563232421875, -0.375732421875, 0, 
229, 12344962, 0.21314921975135803, 0.5973262190818787, -0.05237697437405586, 0.7713789343833923, 1, 0.00007549021393060684, 0.000021045096218585968, 0.000005328096449375153, 0.07817274332046509, 0.014885485172271729, 0.02392101287841797, 9.381103515625, 1.7863295078277588, 2.870636463165283, 1.0381064414978027, 0.28940242528915405, 0.07326952368021011, -0.6669921875, -0.562744140625, -0.377197265625, 0, 
230, 12353295, 0.2131320834159851, 0.5973035097122192, -0.05233702063560486, 0.771403968334198, 1, 0.00006743427366018295, 0.00004218239337205887, -0.000001166015863418579, 0.07814180850982666, 0.01465672254562378, 0.024038970470428467, 9.377391815185547, 1.758876919746399, 2.884791612625122, 0.9273248910903931, 0.580072820186615, -0.016034511849284172, -0.67138671875, -0.559814453125, -0.373291015625, 0, 
231, 12361628, 0.21323609352111816, 0.5972576141357422, -0.05241663008928299, 0.7714053392410278, 1, 0.00005822349339723587, 0.00003483425825834274, 5.578622221946716e-7, 0.07830137014389038, 0.014662504196166992, 0.02385503053665161, 9.396539688110352, 1.7595704793930054, 2.862718343734741, 0.8006625175476074, 0.47902458906173706, 0.007671462371945381, -0.671875, -0.563232421875, -0.373779296875, 0, 
232, 12369961, 0.2131996750831604, 0.5972418189048767, -0.05239095538854599, 0.7714294195175171, 1, 0.00006929133087396622, 0.00003208499401807785, 0.000021682120859622955, 0.07841342687606812, 0.014592885971069336, 0.023639202117919922, 9.40998649597168, 1.7512162923812866, 2.836817502975464, 0.9528623223304749, 0.44121798872947693, 0.2981625199317932, -0.668212890625, -0.562255859375, -0.372314453125, 0, 
233, 12378294, 0.2131640464067459, 0.5972062945365906, -0.052403826266527176, 0.7714658379554749, 1, 0.00009260047227144241, 0.00003529060631990433, 0.00004530232399702072, 0.07849937677383423, 0.014363408088684082, 0.023602664470672607, 9.42030143737793, 1.7236777544021606, 2.832432746887207, 1.273398756980896, 0.48530009388923645, 0.622976541519165, -0.66796875, -0.560302734375, -0.373291015625, 0, 
234, 12386627, 0.21308819949626923, 0.5971940159797668, -0.05236766114830971, 0.7714987993240356, 1, 0.00010253395885229111, 0.0000349460169672966, 0.00004751700907945633, 0.07862883806228638, 0.014472663402557373, 0.02332925796508789, 9.435837745666504, 1.7367889881134033, 2.7996227741241455, 1.4099996089935303, 0.4805614948272705, 0.6534320116043091, -0.66845703125, -0.562744140625, -0.376708984375, 0, 
235, 12394960, 0.21304692327976227, 0.5971700549125671, -0.05237323418259621, 0.7715284824371338, 1, 0.00012000929564237595, 0.000026569701731204987, 0.000048306770622730255, 0.07868379354476929, 0.014260947704315186, 0.023706376552581787, 9.442444801330566, 1.7111860513687134, 2.844956636428833, 1.6503123044967651, 0.36537423729896545, 0.6642923951148987, -0.66943359375, -0.561279296875, -0.372314453125, 0, 
236, 12403293, 0.21296462416648865, 0.5971747636795044, -0.052326351404190063, 0.7715507745742798, 1, 0.00011781882494688034, 0.000017237849533557892, 0.00004297960549592972, 0.07869583368301392, 0.014589428901672363, 0.023913860321044922, 9.443925857543945, 1.7506754398345947, 2.869697332382202, 1.620189905166626, 0.23704692721366882, 0.5910357236862183, -0.66845703125, -0.561767578125, -0.378173828125, 0, 
237, 12411626, 0.21293407678604126, 0.597160279750824, -0.05231814458966255, 0.7715710401535034, 1, 0.00010434631258249283, 0.000013542361557483673, 0.000023241154849529266, 0.07878643274307251, 0.014815926551818848, 0.023305237293243408, 9.45474910736084, 1.7779821157455444, 2.7967400550842285, 1.4349223375320435, 0.18622830510139465, 0.3196016252040863, -0.6708984375, -0.563232421875, -0.374755859375, 0, 
238, 12419959, 0.21290206909179688, 0.5971665382385254, -0.052277401089668274, 0.771577775478363, 1, 0.00008276943117380142, 0.00000810716301202774, 0.000004452653229236603, 0.07920044660568237, 0.014917075634002686, 0.023308396339416504, 9.504432678222656, 1.7901206016540527, 2.797119140625, 1.1382068395614624, 0.11148595064878464, 0.06123082712292671, -0.6708984375, -0.560791015625, -0.374267578125, 0, 
239, 12428292, 0.21295058727264404, 0.5971303582191467, -0.052284542471170425, 0.77159184217453, 1, 0.00007184874266386032, 0.00003341119736433029, -0.00001901388168334961, 0.0795019268989563, 0.015091776847839355, 0.023576557636260986, 9.54061222076416, 1.8110857009887695, 2.829299211502075, 0.9880306124687195, 0.45945531129837036, -0.26147010922431946, -0.66796875, -0.563720703125, -0.375732421875, 0, 
240, 12436625, 0.21298052370548248, 0.5970931053161621, -0.052232593297958374, 0.7716159820556641, 1, 0.000045987777411937714, 0.00005753803998231888, -0.00004416145384311676, 0.07964801788330078, 0.015087604522705078, 0.0239105224609375, 9.55814266204834, 1.8105850219726562, 2.8693766593933105, 0.6324027180671692, 0.7912365794181824, -0.6072879433631897, -0.669921875, -0.561767578125, -0.374267578125, 0, 
241, 12444958, 0.21308180689811707, 0.5970064401626587, -0.05221850052475929, 0.7716559171676636, 1, 0.00002363976091146469, 0.00009119044989347458, -0.00007056072354316711, 0.07967245578765869, 0.01509791612625122, 0.023856282234191895, 9.561076164245605, 1.8118222951889038, 2.862868070602417, 0.3250831067562103, 1.2540090084075928, -0.9703185558319092, -0.6708984375, -0.562255859375, -0.375732421875, 0, 
242, 12453291, 0.21318162977695465, 0.59691321849823, -0.05215026065707207, 0.7717050909996033, 1, 0.000006360001862049103, 0.0001228107139468193, -0.00009969249367713928, 0.0794028639793396, 0.015229284763336182, 0.024171769618988037, 9.528083801269531, 1.8287386894226074, 2.9021060466766357, 0.08745980262756348, 1.6888360977172852, -1.3709251880645752, -0.66748046875, -0.563232421875, -0.375244140625, 0, 
243, 12461624, 0.21339230239391327, 0.5967920422554016, -0.0521634966135025, 0.7717397212982178, 1, -0.00002574734389781952, 0.0001228833571076393, -0.00012385286390781403, 0.07864439487457275, 0.015335559844970703, 0.024110734462738037, 9.437145233154297, 1.8413891792297363, 2.8945603370666504, -0.3540656268596649, 1.6898350715637207, -1.70316743850708, -0.6689453125, -0.563720703125, -0.377197265625, 0, 
244, 12469957, 0.21354041993618011, 0.5966948866844177, -0.05211195349693298, 0.7717773914337158, 1, -0.000036483630537986755, 0.00011801812797784805, -0.0001291036605834961, 0.07773298025131226, 0.015056133270263672, 0.023770391941070557, 9.327797889709473, 1.8078351020812988, 2.8536500930786133, -0.5017060041427612, 1.6229307651519775, -1.775373935699463, -0.6669921875, -0.562744140625, -0.378662109375, 0, 
245, 12478290, 0.21380284428596497, 0.5965887308120728, -0.0521710142493248, 0.7717828750610352, 1, -0.000037921592593193054, 0.00009618233889341354, -0.00012673065066337585, 0.07709026336669922, 0.014811992645263672, 0.023681342601776123, 9.25064468383789, 1.7786955833435059, 2.8429410457611084, -0.521480143070221, 1.3226549625396729, -1.7427412271499634, -0.66748046875, -0.563232421875, -0.378173828125, 0, 
246, 12486623, 0.21394988894462585, 0.596547544002533, -0.05213640630245209, 0.7717763185501099, 1, -0.000039072707295417786, 0.00004460383206605911, -0.000130457803606987, 0.07703155279159546, 0.01464545726776123, 0.023159682750701904, 9.243642807006836, 1.759117603302002, 2.77997088432312, -0.5373098254203796, 0.6133712530136108, -1.7939952611923218, -0.669921875, -0.562255859375, -0.379150390625, 0, 
247, 12494956, 0.21417587995529175, 0.5965209603309631, -0.052191320806741714, 0.771730363368988, 1, -0.0000265464186668396, -0.000002428889274597168, -0.0001237373799085617, 0.07753294706344604, 0.014588356018066406, 0.022829055786132812, 9.303933143615723, 1.7526787519454956, 2.739640951156616, -0.36505407094955444, -0.03340096026659012, -1.701579213142395, -0.66650390625, -0.559814453125, -0.378173828125, 0, 
248, 12503289, 0.2142985463142395, 0.5965422987937927, -0.05215945839881897, 0.7716819643974304, 1, -0.000015035271644592285, -0.000030430033802986145, -0.0001222454011440277, 0.07821327447891235, 0.014567971229553223, 0.022745788097381592, 9.385725021362305, 1.7502747774124146, 2.729123115539551, -0.20675812661647797, -0.41845980286598206, -1.6810623407363892, -0.66845703125, -0.563720703125, -0.379638671875, 0, 
249, 12511622, 0.21451300382614136, 0.5965477824211121, -0.052198491990566254, 0.7716154456138611, 1, -0.000009758397936820984, -0.000037496909499168396, -0.00013219378888607025, 0.07902711629867554, 0.014815986156463623, 0.022859036922454834, 9.48342514038086, 1.7799161672592163, 2.7426626682281494, -0.13419297337532043, -0.5156400799751282, -1.8178678750991821, -0.666015625, -0.560791015625, -0.376708984375, 0, 
250, 12519955, 0.21466052532196045, 0.5965571999549866, -0.052141256630420685, 0.7715709209442139, 1, -0.00001233816146850586, -0.000012150034308433533, -0.00015508383512496948, 0.07940089702606201, 0.015085875988006592, 0.02304631471633911, 9.528185844421387, 1.812144160270691, 2.7655539512634277, -0.16966868937015533, -0.16708165407180786, -2.132641315460205, -0.66748046875, -0.564208984375, -0.377685546875, 0, 
251, 12528288, 0.21493412554264069, 0.5965054035186768, -0.052146557718515396, 0.7715345621109009, 1, -0.000016391277313232422, 0.00003891531378030777, -0.00018394552171230316, 0.07915019989013672, 0.01504141092300415, 0.023478448390960693, 9.498034477233887, 1.806464672088623, 2.8178603649139404, -0.2254052609205246, 0.5351454019546509, -2.529533863067627, -0.66455078125, -0.559326171875, -0.377197265625, 0, 
252, 12536621, 0.21515361964702606, 0.596433699131012, -0.05205169692635536, 0.7715352177619934, 1, -0.00004083104431629181, 0.0000892365351319313, -0.000219050794839859, 0.07878297567367554, 0.015161991119384766, 0.023651540279388428, 9.453660011291504, 1.8215340375900269, 2.839247941970825, -0.5614896416664124, 1.2271395921707153, -3.012284994125366, -0.66650390625, -0.564697265625, -0.376708984375, 0, 
253, 12544954, 0.2155170738697052, 0.5962979793548584, -0.05204930156469345, 0.7715387344360352, 0.9999999403953552, -0.0000756196677684784, 0.00013542640954256058, -0.00024307146668434143, 0.07822167873382568, 0.015298068523406982, 0.02408391237258911, 9.386075973510742, 1.8380602598190308, 2.8917012214660645, -1.039886713027954, 1.862321376800537, -3.34260630607605, -0.66357421875, -0.566162109375, -0.377685546875, 0, 
254, 12553287, 0.21582148969173431, 0.5961552262306213, -0.05196135491132736, 0.7715699672698975, 0.9999999403953552, -0.00011032447218894958, 0.00016542617231607437, -0.00027004629373550415, 0.07757377624511719, 0.015300571918487549, 0.023866713047027588, 9.308196067810059, 1.8384712934494019, 2.865967273712158, -1.5171310901641846, 2.274864435195923, -3.713552236557007, -0.6650390625, -0.563232421875, -0.379150390625, 0, 
255, 12561620, 0.21618089079856873, 0.5959785580635071, -0.05189583823084831, 0.7716102004051208, 0.9999999403953552, -0.00014192983508110046, 0.00018172431737184525, -0.00029950961470603943, 0.07694172859191895, 0.015133202075958252, 0.02380269765853882, 9.232267379760742, 1.8185181617736816, 2.858456611633301, -1.9517532587051392, 2.498988389968872, -4.118717670440674, -0.6630859375, -0.565673828125, -0.381103515625, 0, 
256, 12569953, 0.21654866635799408, 0.5958084464073181, -0.05180312693119049, 0.7716447114944458, 0.9999999403953552, -0.0001496933400630951, 0.00019275490194559097, -0.0003196354955434799, 0.07654303312301636, 0.014991521835327148, 0.023918211460113525, 9.184491157531738, 1.801363229751587, 2.8721797466278076, -2.058513641357422, 2.6506764888763428, -4.395479679107666, -0.66552734375, -0.565185546875, -0.379638671875, 0, 
257, 12578286, 0.21700681746006012, 0.5956295132637024, -0.05178201571106911, 0.7716555595397949, 0.9999999403953552, -0.00016789138317108154, 0.00017407629638910294, -0.000333910807967186, 0.07614129781723022, 0.014884412288665771, 0.023959875106811523, 9.1361665725708, 1.7889024019241333, 2.877288341522217, -2.308764696121216, 2.3938164710998535, -4.591786861419678, -0.6640625, -0.563232421875, -0.378173828125, 0, 
258, 12586619, 0.21740303933620453, 0.5954931378364563, -0.05172098055481911, 0.7716532945632935, 0.9999999403953552, -0.00018556416034698486, 0.0001393212005496025, -0.00033232010900974274, 0.07567662000656128, 0.01470416784286499, 0.023937702178955078, 9.080483436584473, 1.7672752141952515, 2.874372720718384, -2.551792621612549, 1.9158809185028076, -4.569912910461426, -0.66162109375, -0.564208984375, -0.38330078125, 0, 
259, 12594952, 0.21784795820713043, 0.5953724980354309, -0.05172310769557953, 0.7716209888458252, 0.9999999403953552, -0.0001979134976863861, 0.00009141210466623306, -0.00033039599657058716, 0.07570415735244751, 0.014608204364776611, 0.02394390106201172, 9.084059715270996, 1.7553681135177612, 2.8745028972625732, -2.7216148376464844, 1.2570569515228271, -4.543453216552734, -0.66015625, -0.565673828125, -0.38232421875, 0, 
260, 12603285, 0.21823298931121826, 0.5953055620193481, -0.051702067255973816, 0.7715652585029602, 0.9999999403953552, -0.00019716471433639526, 0.00004469882696866989, -0.0003150664269924164, 0.07615399360656738, 0.01460731029510498, 0.0236586332321167, 9.138121604919434, 1.7554134130477905, 2.839951992034912, -2.711318016052246, 0.6146776676177979, -4.332648277282715, -0.66015625, -0.565673828125, -0.38330078125, 0, 
261, 12611618, 0.21862824261188507, 0.5952521562576294, -0.05172426998615265, 0.7714928984642029, 0.9999999403953552, -0.0001774430274963379, 0.000006652437150478363, -0.0002939477562904358, 0.07705765962600708, 0.0142861008644104, 0.02372586727142334, 9.246760368347168, 1.716637372970581, 2.8475875854492188, -2.4401144981384277, 0.09148123860359192, -4.042233943939209, -0.662109375, -0.566162109375, -0.38232421875, 0, 
262, 12619951, 0.21897076070308685, 0.5952227711677551, -0.05171741545200348, 0.7714188694953918, 0.9999999403953552, -0.00017535313963890076, -4.7124922275543213e-7, -0.00027976930141448975, 0.07796889543533325, 0.01438826322555542, 0.023340225219726562, 9.356114387512207, 1.7289857864379883, 2.801265239715576, -2.4113752841949463, -0.00648040184751153, -3.8472580909729004, -0.6591796875, -0.568115234375, -0.3828125, 0, 
263, 12628284, 0.21935461461544037, 0.5951615571975708, -0.05177399516105652, 0.7713531851768494, 0.9999999403953552, -0.00016153231263160706, 0.000015533529222011566, -0.0002516061067581177, 0.07886725664138794, 0.01404350996017456, 0.023613154888153076, 9.463982582092285, 1.6872069835662842, 2.8341097831726074, -2.2213172912597656, 0.21360990405082703, -3.459970235824585, -0.662109375, -0.567626953125, -0.382080078125, 0, 
264, 12636617, 0.2196628749370575, 0.5951166749000549, -0.051765333861112595, 0.7713006138801575, 0.9999999403953552, -0.00015562772750854492, 0.000022870488464832306, -0.0002488456666469574, 0.07953459024429321, 0.014206111431121826, 0.023710906505584717, 9.544026374816895, 1.7067948579788208, 2.845921277999878, -2.140120267868042, 0.31450432538986206, -3.4220099449157715, -0.6591796875, -0.569091796875, -0.38427734375, 0, 
265, 12644950, 0.22002707421779633, 0.5950198769569397, -0.051812320947647095, 0.7712683081626892, 0.9999999403953552, -0.0001691095530986786, 0.00006069149821996689, -0.00023986957967281342, 0.07957196235656738, 0.013977408409118652, 0.02375584840774536, 9.548441886901855, 1.6791560649871826, 2.851674795150757, -2.325516700744629, 0.8346014022827148, -3.2985754013061523, -0.6611328125, -0.568603515625, -0.3857421875, 0, 
266, 12653283, 0.22035828232765198, 0.5949149131774902, -0.05181241035461426, 0.7712546586990356, 0.9999999403953552, -0.00018706545233726501, 0.00009152200073003769, -0.0002497658133506775, 0.07950860261917114, 0.014353275299072266, 0.023965299129486084, 9.540630340576172, 1.7245413064956665, 2.8772988319396973, -2.5724377632141113, 1.258568286895752, -3.434663772583008, -0.66162109375, -0.566650390625, -0.381591796875, 0, 
267, 12661616, 0.22079351544380188, 0.5947672724723816, -0.05187832564115524, 0.7712398171424866, 0.9999999403953552, -0.0002102106809616089, 0.00011560600250959396, -0.0002705305814743042, 0.07916253805160522, 0.014491617679595947, 0.024013400077819824, 9.499150276184082, 1.7408545017242432, 2.8830578327178955, -2.8907201290130615, 1.5897603034973145, -3.7202110290527344, -0.65673828125, -0.56787109375, -0.38525390625, 0, 
268, 12669949, 0.2211856096982956, 0.5946030616760254, -0.051889568567276, 0.7712532877922058, 0.9999999403953552, -0.00024331733584403992, 0.00015410128980875015, -0.00028091855347156525, 0.07833129167556763, 0.014965295791625977, 0.024212241172790527, 9.399252891540527, 1.79768705368042, 2.9073212146759033, -3.345987558364868, 2.1191298961639404, -3.8630623817443848, -0.6572265625, -0.567138671875, -0.38671875, 0, 
269, 12678282, 0.22172118723392487, 0.5943986177444458, -0.05202712491154671, 0.7712480425834656, 0.9999998807907104, -0.0002746749669313431, 0.00016716402024030685, -0.00028205662965774536, 0.07775086164474487, 0.015657782554626465, 0.024188458919525146, 9.329483032226562, 1.8808014392852783, 2.9047598838806152, -3.7772035598754883, 2.298762559890747, -3.8787124156951904, -0.65625, -0.568359375, -0.3857421875, 0, 
270, 12686615, 0.22217406332492828, 0.5942031145095825, -0.052074696868658066, 0.7712651491165161, 0.9999998807907104, -0.0003139600157737732, 0.00017554033547639847, -0.0003036670386791229, 0.07709181308746338, 0.015890419483184814, 0.024171173572540283, 9.250362396240234, 1.9087135791778564, 2.9027493000030518, -4.317432403564453, 2.413949489593506, -4.1758880615234375, -0.6572265625, -0.567626953125, -0.38525390625, 0, 
271, 12694948, 0.22270672023296356, 0.5939863324165344, -0.05218631029129028, 0.7712708115577698, 0.9999998807907104, -0.0003318954259157181, 0.00017371121793985367, -0.000315248966217041, 0.07673108577728271, 0.016205787658691406, 0.023951947689056396, 9.206990242004395, 1.9467098712921143, 2.876581907272339, -4.564072608947754, 2.388796329498291, -4.335158348083496, -0.6572265625, -0.567138671875, -0.38818359375, 0, 
272, 12703281, 0.2232031226158142, 0.5938056111335754, -0.052257515490055084, 0.7712616324424744, 0.9999998807907104, -0.00035572610795497894, 0.00014570076018571854, -0.0003296826034784317, 0.07674193382263184, 0.01608675718307495, 0.02395308017730713, 9.208294868469238, 1.9325932264328003, 2.8766064643859863, -4.891780853271484, 2.0036094188690186, -4.533642768859863, -0.6572265625, -0.572998046875, -0.3896484375, 0, 
273, 12711614, 0.22383712232112885, 0.5936165452003479, -0.05242855101823807, 0.7712119221687317, 0.9999998807907104, -0.00038458965718746185, 0.00012097414582967758, -0.0003553330898284912, 0.07684069871902466, 0.015928566455841064, 0.023778796195983887, 9.220195770263672, 1.9137526750564575, 2.8554790019989014, -5.288699150085449, 1.6635806560516357, -4.886376857757568, -0.6572265625, -0.566162109375, -0.39013671875, 0, 
274, 12719947, 0.22438323497772217, 0.593469500541687, -0.05253083258867264, 0.7711594104766846, 0.9999998211860657, -0.00040386803448200226, 0.0000895848497748375, -0.0003609713166952133, 0.0771031379699707, 0.015943527221679688, 0.02398461103439331, 9.251808166503906, 1.9154525995254517, 2.8798515796661377, -5.553806304931641, 1.2319294214248657, -4.9639105796813965, -0.6513671875, -0.5703125, -0.39208984375, 0, 
275, 12728280, 0.2250024974346161, 0.5933151841163635, -0.052689019590616226, 0.7710868120193481, 0.9999998211860657, -0.0004427935928106308, 0.00006657745689153671, -0.0003827866166830063, 0.07772868871688843, 0.016040444374084473, 0.024026691913604736, 9.326857566833496, 1.9272936582565308, 2.8848366737365723, -6.0890936851501465, 0.9155426025390625, -5.263905048370361, -0.65283203125, -0.56982421875, -0.3916015625, 0, 
276, 12736613, 0.2256128042936325, 0.5931936502456665, -0.05282210931181908, 0.7709929347038269, 0.9999998211860657, -0.000461772084236145, 0.00004187505692243576, -0.0004028826951980591, 0.07792168855667114, 0.015842199325561523, 0.02383863925933838, 9.350065231323242, 1.9036517143249512, 2.8620548248291016, -6.350076675415039, 0.5758464336395264, -5.540256977081299, -0.65576171875, -0.567626953125, -0.39013671875, 0, 
277, 12744946, 0.22638541460037231, 0.5930525064468384, -0.053066737949848175, 0.7708584070205688, 0.9999998211860657, -0.0004837922751903534, 0.00003167334944009781, -0.00042709894478321075, 0.07824838161468506, 0.01596701145172119, 0.024082839488983154, 9.389269828796387, 1.9187283515930176, 2.891280174255371, -6.65288782119751, 0.4355573058128357, -5.873266696929932, -0.65234375, -0.57177734375, -0.39306640625, 0, 
278, 12753279, 0.22704870998859406, 0.5929393768310547, -0.053220950067043304, 0.770739734172821, 0.9999997615814209, -0.0005085989832878113, 0.000018700025975704193, -0.00043714605271816254, 0.07836568355560303, 0.016072392463684082, 0.024499177932739258, 9.403364181518555, 1.931361436843872, 2.9411685466766357, -6.9940185546875, 0.2571541368961334, -6.0114312171936035, -0.654296875, -0.572265625, -0.3896484375, 0, 
279, 12761612, 0.22789303958415985, 0.5927949547767639, -0.05349252372980118, 0.7705826163291931, 0.9999997615814209, -0.0005476865917444229, 0.0000196089968085289, -0.000470232218503952, 0.07804673910140991, 0.016370952129364014, 0.024612784385681152, 9.36502742767334, 1.967299461364746, 2.954876184463501, -7.5315327644348145, 0.269653856754303, -6.4664154052734375, -0.65087890625, -0.572265625, -0.39208984375, 0, 
280, 12769945, 0.22865435481071472, 0.5926622152328491, -0.05367008224129677, 0.7704468369483948, 0.9999997019767761, -0.0005896221846342087, 0.00002357643097639084, -0.0005016755312681198, 0.0777132511138916, 0.016607701778411865, 0.024802565574645996, 9.324898719787598, 1.995908260345459, 2.977813243865967, -8.1082124710083, 0.3242121934890747, -6.898810386657715, -0.65185546875, -0.5712890625, -0.3955078125, 0, 
281, 12778278, 0.22950655221939087, 0.5924995541572571, -0.05389830470085144, 0.7703025341033936, 0.9999996423721313, -0.0006472188979387283, 0.000026590190827846527, -0.0005357861518859863, 0.07725214958190918, 0.016767680644989014, 0.025407493114471436, 9.269454956054688, 2.0152318477630615, 3.0505893230438232, -8.900256156921387, 0.3656560480594635, -7.367884159088135, -0.647216796875, -0.5732421875, -0.39794921875, 0, 
282, 12786611, 0.23037707805633545, 0.5923395752906799, -0.054116155952215195, 0.7701504826545715, 0.9999995827674866, -0.000692225992679596, 0.000031664036214351654, -0.0005640629678964615, 0.07672667503356934, 0.016682207584381104, 0.025303781032562256, 9.206334114074707, 2.0050604343414307, 3.038266897201538, -9.519171714782715, 0.435429185628891, -7.75673246383667, -0.649658203125, -0.57177734375, -0.396484375, 0, 
283, 12794944, 0.23135770857334137, 0.5921547412872314, -0.05439968779683113, 0.7699787020683289, 0.9999995827674866, -0.0007244367152452469, 0.000030671246349811554, -0.0005908459424972534, 0.07611465454101562, 0.01636713743209839, 0.025927603244781494, 9.132883071899414, 1.9672391414642334, 3.1131200790405273, -9.962120056152344, 0.4217768907546997, -8.125041961669922, -0.64794921875, -0.5732421875, -0.39306640625, 0, 
284, 12803277, 0.23229604959487915, 0.5920111536979675, -0.05464776232838631, 0.7697890400886536, 0.9999995231628418, -0.0007538404315710068, -0.000006662681698799133, -0.0006078742444515228, 0.07586920261383057, 0.016334891319274902, 0.026095807552337646, 9.103513717651367, 1.9633914232254028, 3.133018970489502, -10.366466522216797, -0.09162213653326035, -8.359206199645996, -0.649169921875, -0.57080078125, -0.39697265625, 0, 
285, 12811610, 0.23322878777980804, 0.5918640494346619, -0.054908107966184616, 0.7696015238761902, 0.9999995231628418, -0.000752083957195282, -0.000023482367396354675, -0.0005975589156150818, 0.07574564218521118, 0.016153693199157715, 0.025546014308929443, 9.088752746582031, 1.9416481256484985, 3.0668904781341553, -10.34231185913086, -0.32291871309280396, -8.217355728149414, -0.648681640625, -0.57177734375, -0.39990234375, 0, 
286, 12819943, 0.23414720594882965, 0.591751217842102, -0.05517246946692467, 0.7693905234336853, 0.9999995231628418, -0.0007482767105102539, -0.000047748908400535583, -0.0005896072834730148, 0.07603645324707031, 0.016035616397857666, 0.025046050548553467, 9.12373161315918, 1.9275293350219727, 3.006666421890259, -10.289958000183105, -0.6566210389137268, -8.10800838470459, -0.648193359375, -0.572265625, -0.400390625, 0, 
